<?xml version="1.0" encoding="utf-8"?>
<cdiscLibrary><product><_links><priorVersion><href>/mdr/sdtm/2-0</href><title>Study Data Tabulation Model Version 2.0</title><type>Foundational Model</type></priorVersion><self><href>/mdr/sdtm/2-1</href><title>Study Data Tabulation Model Version 2.1</title><type>Foundational Model</type></self></_links><class><_links><parentProduct><href>/mdr/sdtm/2-1</href><title>Study Data Tabulation Model Version 2.1</title><type>Foundational Model</type></parentProduct><priorVersion><href>/mdr/sdtm/2-0/classes/GeneralObservations</href><title>General Observations</title><type>Class</type></priorVersion><self><href>/mdr/sdtm/2-1/classes/GeneralObservations</href><title>General Observations</title><type>Class</type></self><subclass><href>/mdr/sdtm/2-1/classes/Interventions</href><title>Interventions</title><type>Class</type></subclass><subclass><href>/mdr/sdtm/2-1/classes/Events</href><title>Events</title><type>Class</type></subclass><subclass><href>/mdr/sdtm/2-1/classes/Findings</href><title>Findings</title><type>Class</type></subclass></_links><classVariable><_links><parentClass><href>/mdr/sdtm/2-1/classes/GeneralObservations</href><title>General Observations</title><type>Class</type></parentClass><parentProduct><href>/mdr/sdtm/2-1</href><title>Study Data Tabulation Model Version 2.1</title><type>Foundational Model</type></parentProduct><priorVersion><href>/mdr/sdtm/2-0/classes/GeneralObservations/variables/STUDYID</href><title>Study Identifier</title><type>SDTM Class Variable</type></priorVersion><rootItem><href>/mdr/root/sdtm/classes/GeneralObservations/variables/STUDYID</href><title>Version-agnostic anchor resource for SDTM variable GeneralObservations.STUDYID</title><type>Root Data Element</type></rootItem><self><href>/mdr/sdtm/2-1/classes/GeneralObservations/variables/STUDYID</href><title>Study Identifier</title><type>SDTM Class Variable</type></self></_links><definition>A sequence of characters used by the sponsor to uniquely identify the study.</definition><label>Study Identifier</label><name>STUDYID</name><ordinal>1</ordinal><role>Identifier</role><simpleDatatype>Char</simpleDatatype><variableCcode>C83082</variableCcode></classVariable><classVariable><_links><parentClass><href>/mdr/sdtm/2-1/classes/GeneralObservations</href><title>General Observations</title><type>Class</type></parentClass><parentProduct><href>/mdr/sdtm/2-1</href><title>Study Data Tabulation Model Version 2.1</title><type>Foundational Model</type></parentProduct><priorVersion><href>/mdr/sdtm/2-0/classes/GeneralObservations/variables/DOMAIN</href><title>Domain Abbreviation</title><type>SDTM Class Variable</type></priorVersion><rootItem><href>/mdr/root/sdtm/classes/GeneralObservations/variables/DOMAIN</href><title>Version-agnostic anchor resource for SDTM variable GeneralObservations.DOMAIN</title><type>Root Data Element</type></rootItem><self><href>/mdr/sdtm/2-1/classes/GeneralObservations/variables/DOMAIN</href><title>Domain Abbreviation</title><type>SDTM Class Variable</type></self></_links><definition>An abbreviation for a collection of observations, with a topic-specific commonality.</definition><label>Domain Abbreviation</label><name>DOMAIN</name><notes>2-character abbreviation. The domain abbreviation is also used as a prefix for variables to ensure uniqueness when datasets are merged.</notes><ordinal>2</ordinal><role>Identifier</role><simpleDatatype>Char</simpleDatatype><variableCcode>C49558</variableCcode></classVariable><classVariable><_links><parentClass><href>/mdr/sdtm/2-1/classes/GeneralObservations</href><title>General Observations</title><type>Class</type></parentClass><parentProduct><href>/mdr/sdtm/2-1</href><title>Study Data Tabulation Model Version 2.1</title><type>Foundational Model</type></parentProduct><priorVersion><href>/mdr/sdtm/2-0/classes/GeneralObservations/variables/USUBJID</href><title>Unique Subject Identifier</title><type>SDTM Class Variable</type></priorVersion><rootItem><href>/mdr/root/sdtm/classes/GeneralObservations/variables/USUBJID</href><title>Version-agnostic anchor resource for SDTM variable GeneralObservations.USUBJID</title><type>Root Data Element</type></rootItem><self><href>/mdr/sdtm/2-1/classes/GeneralObservations/variables/USUBJID</href><title>Unique Subject Identifier</title><type>SDTM Class Variable</type></self></_links><definition>A sequence of characters used to uniquely identify a subject across all studies for all applications or submissions involving the product.</definition><label>Unique Subject Identifier</label><name>USUBJID</name><ordinal>3</ordinal><role>Identifier</role><simpleDatatype>Char</simpleDatatype><variableCcode>C69256</variableCcode></classVariable><classVariable><_links><parentClass><href>/mdr/sdtm/2-1/classes/GeneralObservations</href><title>General Observations</title><type>Class</type></parentClass><parentProduct><href>/mdr/sdtm/2-1</href><title>Study Data Tabulation Model Version 2.1</title><type>Foundational Model</type></parentProduct><priorVersion><href>/mdr/sdtm/2-0/classes/GeneralObservations/variables/POOLID</href><title>Pool Identifier</title><type>SDTM Class Variable</type></priorVersion><rootItem><href>/mdr/root/sdtm/classes/GeneralObservations/variables/POOLID</href><title>Version-agnostic anchor resource for SDTM variable GeneralObservations.POOLID</title><type>Root Data Element</type></rootItem><self><href>/mdr/sdtm/2-1/classes/GeneralObservations/variables/POOLID</href><title>Pool Identifier</title><type>SDTM Class Variable</type></self></_links><definition>A sequence of characters used to uniquely identify a group of subjects that have been pooled together.</definition><label>Pool Identifier</label><name>POOLID</name><notes>Used for results that are not assignable to a specific subject.</notes><ordinal>4</ordinal><role>Identifier</role><simpleDatatype>Char</simpleDatatype><variableCcode>C117053</variableCcode></classVariable><classVariable><_links><parentClass><href>/mdr/sdtm/2-1/classes/GeneralObservations</href><title>General Observations</title><type>Class</type></parentClass><parentProduct><href>/mdr/sdtm/2-1</href><title>Study Data Tabulation Model Version 2.1</title><type>Foundational Model</type></parentProduct><priorVersion><href>/mdr/sdtm/2-0/classes/GeneralObservations/variables/SPDEVID</href><title>Sponsor Device Identifier</title><type>SDTM Class Variable</type></priorVersion><rootItem><href>/mdr/root/sdtm/classes/GeneralObservations/variables/SPDEVID</href><title>Version-agnostic anchor resource for SDTM variable GeneralObservations.SPDEVID</title><type>Root Data Element</type></rootItem><self><href>/mdr/sdtm/2-1/classes/GeneralObservations/variables/SPDEVID</href><title>Sponsor Device Identifier</title><type>SDTM Class Variable</type></self></_links><definition>A sequence of characters used by the sponsor to uniquely identify a specific device.</definition><label>Sponsor Device Identifier</label><name>SPDEVID</name><ordinal>5</ordinal><role>Identifier</role><simpleDatatype>Char</simpleDatatype><variableCcode>C117060</variableCcode></classVariable><classVariable><_links><parentClass><href>/mdr/sdtm/2-1/classes/GeneralObservations</href><title>General Observations</title><type>Class</type></parentClass><parentProduct><href>/mdr/sdtm/2-1</href><title>Study Data Tabulation Model Version 2.1</title><type>Foundational Model</type></parentProduct><rootItem><href>/mdr/root/sdtm/classes/GeneralObservations/variables/SPTOBID</href><title>Version-agnostic anchor resource for SDTM variable GeneralObservations.SPTOBID</title><type>Root Data Element</type></rootItem><self><href>/mdr/sdtm/2-1/classes/GeneralObservations/variables/SPTOBID</href><title>Applicant-Defined Tobacco Product ID</title><type>SDTM Class Variable</type></self></_links><definition>A sequence of characters used by the applicant to uniquely identify a tobacco product.</definition><label>Applicant-Defined Tobacco Product ID</label><name>SPTOBID</name><ordinal>6</ordinal><role>Identifier</role><simpleDatatype>Char</simpleDatatype><usageRestrictions>Tobacco IG only</usageRestrictions></classVariable><classVariable><_links><parentClass><href>/mdr/sdtm/2-1/classes/GeneralObservations</href><title>General Observations</title><type>Class</type></parentClass><parentProduct><href>/mdr/sdtm/2-1</href><title>Study Data Tabulation Model Version 2.1</title><type>Foundational Model</type></parentProduct><rootItem><href>/mdr/root/sdtm/classes/GeneralObservations/variables/IGDCMPID</href><title>Version-agnostic anchor resource for SDTM variable GeneralObservations.IGDCMPID</title><type>Root Data Element</type></rootItem><self><href>/mdr/sdtm/2-1/classes/GeneralObservations/variables/IGDCMPID</href><title>Ingredient or Component Identifier</title><type>SDTM Class Variable</type></self></_links><definition>A sequence of characters used by the applicant to uniquely identify an ingredient, substance or component of a tobacco product.</definition><examples>"Burley Tobacco", "Cellulose Pulp"</examples><label>Ingredient or Component Identifier</label><name>IGDCMPID</name><ordinal>7</ordinal><role>Identifier</role><simpleDatatype>Char</simpleDatatype><usageRestrictions>PT Domain Only</usageRestrictions></classVariable><classVariable><_links><parentClass><href>/mdr/sdtm/2-1/classes/GeneralObservations</href><title>General Observations</title><type>Class</type></parentClass><parentProduct><href>/mdr/sdtm/2-1</href><title>Study Data Tabulation Model Version 2.1</title><type>Foundational Model</type></parentProduct><rootItem><href>/mdr/root/sdtm/classes/GeneralObservations/variables/STOCONID</href><title>Version-agnostic anchor resource for SDTM variable GeneralObservations.STOCONID</title><type>Root Data Element</type></rootItem><self><href>/mdr/sdtm/2-1/classes/GeneralObservations/variables/STOCONID</href><title>Applicant-defined Storage Conditions ID</title><type>SDTM Class Variable</type></self></_links><definition>A sequence of characters used by the applicant to uniquely identify a set of environmental conditions under which a product was stored.</definition><examples>"E-Liquid Standard Long Term Conditions", "Storage Conditions 1"</examples><label>Applicant-defined Storage Conditions ID</label><name>STOCONID</name><ordinal>8</ordinal><role>Identifier</role><simpleDatatype>Char</simpleDatatype><usageRestrictions>PT Domain Only</usageRestrictions></classVariable><classVariable><_links><parentClass><href>/mdr/sdtm/2-1/classes/GeneralObservations</href><title>General Observations</title><type>Class</type></parentClass><parentProduct><href>/mdr/sdtm/2-1</href><title>Study Data Tabulation Model Version 2.1</title><type>Foundational Model</type></parentProduct><priorVersion><href>/mdr/sdtm/2-0/classes/GeneralObservations/variables/NHOID</href><title>Non-Host Organism Identifier</title><type>SDTM Class Variable</type></priorVersion><rootItem><href>/mdr/root/sdtm/classes/GeneralObservations/variables/NHOID</href><title>Version-agnostic anchor resource for SDTM variable GeneralObservations.NHOID</title><type>Root Data Element</type></rootItem><self><href>/mdr/sdtm/2-1/classes/GeneralObservations/variables/NHOID</href><title>Non-Host Organism Identifier</title><type>SDTM Class Variable</type></self></_links><examples>A/California/7/2009 (H1N1)</examples><label>Non-Host Organism Identifier</label><name>NHOID</name><notes>Sponsor-defined identifier for a non-host organism. This variable should be populated with an intuitive name based on the identity of the non-host organism as reported by the lab.</notes><ordinal>9</ordinal><role>Identifier</role><simpleDatatype>Char</simpleDatatype></classVariable><classVariable><_links><parentClass><href>/mdr/sdtm/2-1/classes/GeneralObservations</href><title>General Observations</title><type>Class</type></parentClass><parentProduct><href>/mdr/sdtm/2-1</href><title>Study Data Tabulation Model Version 2.1</title><type>Foundational Model</type></parentProduct><priorVersion><href>/mdr/sdtm/2-0/classes/GeneralObservations/variables/FETUSID</href><title>Fetus Identifier</title><type>SDTM Class Variable</type></priorVersion><rootItem><href>/mdr/root/sdtm/classes/GeneralObservations/variables/FETUSID</href><title>Version-agnostic anchor resource for SDTM variable GeneralObservations.FETUSID</title><type>Root Data Element</type></rootItem><self><href>/mdr/sdtm/2-1/classes/GeneralObservations/variables/FETUSID</href><title>Fetus Identifier</title><type>SDTM Class Variable</type></self></_links><definition>A sequence of characters used to uniquely identify a fetus associated with a maternal subject, for a particular prenatal evaluation.</definition><label>Fetus Identifier</label><name>FETUSID</name><ordinal>10</ordinal><role>Identifier</role><simpleDatatype>Char</simpleDatatype><usageRestrictions>Not in human clinical trials</usageRestrictions><variableCcode>C170497</variableCcode></classVariable><classVariable><_links><parentClass><href>/mdr/sdtm/2-1/classes/GeneralObservations</href><title>General Observations</title><type>Class</type></parentClass><parentProduct><href>/mdr/sdtm/2-1</href><title>Study Data Tabulation Model Version 2.1</title><type>Foundational Model</type></parentProduct><priorVersion><href>/mdr/sdtm/2-0/classes/GeneralObservations/variables/FOCID</href><title>Focus of Study-Specific Interest</title><type>SDTM Class Variable</type></priorVersion><rootItem><href>/mdr/root/sdtm/classes/GeneralObservations/variables/FOCID</href><title>Version-agnostic anchor resource for SDTM variable GeneralObservations.FOCID</title><type>Root Data Element</type></rootItem><self><href>/mdr/sdtm/2-1/classes/GeneralObservations/variables/FOCID</href><title>Focus of Study-Specific Interest</title><type>SDTM Class Variable</type></self></_links><examples>A drug application site (e.g., "Injection site 1", "Biopsy site 1", "Treated site 1"), or a more specific focus (e.g., "OD" (right eye), "Upper left quadrant of the back")</examples><label>Focus of Study-Specific Interest</label><name>FOCID</name><notes>Identification of a focus of study-specific interest on or within a subject or specimen as called out in the protocol for which a measurement, test, or examination was performed. The value in this variable should have inherent semantic meaning.</notes><ordinal>11</ordinal><role>Identifier</role><simpleDatatype>Char</simpleDatatype></classVariable><classVariable><_links><parentClass><href>/mdr/sdtm/2-1/classes/GeneralObservations</href><title>General Observations</title><type>Class</type></parentClass><parentProduct><href>/mdr/sdtm/2-1</href><title>Study Data Tabulation Model Version 2.1</title><type>Foundational Model</type></parentProduct><priorVersion><href>/mdr/sdtm/2-0/classes/GeneralObservations/variables/--SEQ</href><title>Sequence Number</title><type>SDTM Class Variable</type></priorVersion><rootItem><href>/mdr/root/sdtm/classes/GeneralObservations/variables/--SEQ</href><title>Version-agnostic anchor resource for SDTM variable GeneralObservations.--SEQ</title><type>Root Data Element</type></rootItem><self><href>/mdr/sdtm/2-1/classes/GeneralObservations/variables/--SEQ</href><title>Sequence Number</title><type>SDTM Class Variable</type></self></_links><definition>A number used in combination with the identifier of the subject of the observation to uniquely identify a record within a domain.</definition><label>Sequence Number</label><name>--SEQ</name><notes>May be any valid number (including decimals) and does not have to start at 1. Datasets that do not contain subject data, such as the Trial Summary (TS) domain and the Device Tracking (DT) domains, use --SEQ as a sequence number to ensure uniqueness within the dataset.</notes><ordinal>12</ordinal><role>Identifier</role><simpleDatatype>Num</simpleDatatype><variableCcode>C70710</variableCcode></classVariable><classVariable><_links><parentClass><href>/mdr/sdtm/2-1/classes/GeneralObservations</href><title>General Observations</title><type>Class</type></parentClass><parentProduct><href>/mdr/sdtm/2-1</href><title>Study Data Tabulation Model Version 2.1</title><type>Foundational Model</type></parentProduct><priorVersion><href>/mdr/sdtm/2-0/classes/GeneralObservations/variables/--GRPID</href><title>Group ID</title><type>SDTM Class Variable</type></priorVersion><rootItem><href>/mdr/root/sdtm/classes/GeneralObservations/variables/--GRPID</href><title>Version-agnostic anchor resource for SDTM variable GeneralObservations.--GRPID</title><type>Root Data Element</type></rootItem><self><href>/mdr/sdtm/2-1/classes/GeneralObservations/variables/--GRPID</href><title>Group ID</title><type>SDTM Class Variable</type></self></_links><definition>A sequence of characters used to uniquely identify related records for a subject within a domain, or related parameters in the TS dataset.</definition><label>Group ID</label><name>--GRPID</name><notes>See also Section 5.1.6, Trial Summary Information and Section 5.1.7, Challenge Agent Characterization.</notes><ordinal>13</ordinal><role>Identifier</role><simpleDatatype>Char</simpleDatatype><variableCcode>C170996</variableCcode></classVariable><classVariable><_links><parentClass><href>/mdr/sdtm/2-1/classes/GeneralObservations</href><title>General Observations</title><type>Class</type></parentClass><parentProduct><href>/mdr/sdtm/2-1</href><title>Study Data Tabulation Model Version 2.1</title><type>Foundational Model</type></parentProduct><priorVersion><href>/mdr/sdtm/2-0/classes/GeneralObservations/variables/--REFID</href><title>Reference ID</title><type>SDTM Class Variable</type></priorVersion><rootItem><href>/mdr/root/sdtm/classes/GeneralObservations/variables/--REFID</href><title>Version-agnostic anchor resource for SDTM variable GeneralObservations.--REFID</title><type>Root Data Element</type></rootItem><self><href>/mdr/sdtm/2-1/classes/GeneralObservations/variables/--REFID</href><title>Reference ID</title><type>SDTM Class Variable</type></self></_links><definition>A sequence of characters used to uniquely identify a source of information.</definition><examples>A lab specimen ID, the UUID for an ECG waveform or a medical image.</examples><label>Reference ID</label><name>--REFID</name><ordinal>14</ordinal><role>Identifier</role><simpleDatatype>Char</simpleDatatype><variableCcode>C82531</variableCcode></classVariable><classVariable><_links><parentClass><href>/mdr/sdtm/2-1/classes/GeneralObservations</href><title>General Observations</title><type>Class</type></parentClass><parentProduct><href>/mdr/sdtm/2-1</href><title>Study Data Tabulation Model Version 2.1</title><type>Foundational Model</type></parentProduct><priorVersion><href>/mdr/sdtm/2-0/classes/GeneralObservations/variables/--RECID</href><title>Invariant Record Identifier</title><type>SDTM Class Variable</type></priorVersion><rootItem><href>/mdr/root/sdtm/classes/GeneralObservations/variables/--RECID</href><title>Version-agnostic anchor resource for SDTM variable GeneralObservations.--RECID</title><type>Root Data Element</type></rootItem><self><href>/mdr/sdtm/2-1/classes/GeneralObservations/variables/--RECID</href><title>Invariant Record Identifier</title><type>SDTM Class Variable</type></self></_links><label>Invariant Record Identifier</label><name>--RECID</name><notes>Identifier for a record that is unique within a domain for a study and that remains invariant through subsequent versions of the dataset, even if the content of the record is modified. When a record is deleted, this value must not be reused to identify another record in either the current or future versions of the domain.</notes><ordinal>15</ordinal><role>Identifier</role><simpleDatatype>Char</simpleDatatype></classVariable><classVariable><_links><parentClass><href>/mdr/sdtm/2-1/classes/GeneralObservations</href><title>General Observations</title><type>Class</type></parentClass><parentProduct><href>/mdr/sdtm/2-1</href><title>Study Data Tabulation Model Version 2.1</title><type>Foundational Model</type></parentProduct><priorVersion><href>/mdr/sdtm/2-0/classes/GeneralObservations/variables/--SPID</href><title>Sponsor-Defined Identifier</title><type>SDTM Class Variable</type></priorVersion><rootItem><href>/mdr/root/sdtm/classes/GeneralObservations/variables/--SPID</href><title>Version-agnostic anchor resource for SDTM variable GeneralObservations.--SPID</title><type>Root Data Element</type></rootItem><self><href>/mdr/sdtm/2-1/classes/GeneralObservations/variables/--SPID</href><title>Sponsor-Defined Identifier</title><type>SDTM Class Variable</type></self></_links><definition>A sponsor-defined sequence of characters used to identify an instance of an observation.</definition><examples>A preprinted line identifier on a Concomitant Medications form.</examples><label>Sponsor-Defined Identifier</label><name>--SPID</name><ordinal>16</ordinal><role>Identifier</role><simpleDatatype>Char</simpleDatatype><variableCcode>C82530</variableCcode></classVariable><classVariable><_links><parentClass><href>/mdr/sdtm/2-1/classes/GeneralObservations</href><title>General Observations</title><type>Class</type></parentClass><parentProduct><href>/mdr/sdtm/2-1</href><title>Study Data Tabulation Model Version 2.1</title><type>Foundational Model</type></parentProduct><priorVersion><href>/mdr/sdtm/2-0/classes/GeneralObservations/variables/--LNKID</href><title>Link ID</title><type>SDTM Class Variable</type></priorVersion><rootItem><href>/mdr/root/sdtm/classes/GeneralObservations/variables/--LNKID</href><title>Version-agnostic anchor resource for SDTM variable GeneralObservations.--LNKID</title><type>Root Data Element</type></rootItem><self><href>/mdr/sdtm/2-1/classes/GeneralObservations/variables/--LNKID</href><title>Link ID</title><type>SDTM Class Variable</type></self></_links><definition>A sequence of characters used to uniquely identify a record, for a subject, in one domain and link it to 1 or more records for that subject in another domain.</definition><examples>A value that links a single tumor to multiple measurements/assessments performed at different times.</examples><label>Link ID</label><name>--LNKID</name><notes>This may be a one-to-one or a one-to-many relationship.</notes><ordinal>17</ordinal><role>Identifier</role><simpleDatatype>Char</simpleDatatype><variableCcode>C117050</variableCcode></classVariable><classVariable><_links><parentClass><href>/mdr/sdtm/2-1/classes/GeneralObservations</href><title>General Observations</title><type>Class</type></parentClass><parentProduct><href>/mdr/sdtm/2-1</href><title>Study Data Tabulation Model Version 2.1</title><type>Foundational Model</type></parentProduct><priorVersion><href>/mdr/sdtm/2-0/classes/GeneralObservations/variables/--LNKGRP</href><title>Link Group ID</title><type>SDTM Class Variable</type></priorVersion><rootItem><href>/mdr/root/sdtm/classes/GeneralObservations/variables/--LNKGRP</href><title>Version-agnostic anchor resource for SDTM variable GeneralObservations.--LNKGRP</title><type>Root Data Element</type></rootItem><self><href>/mdr/sdtm/2-1/classes/GeneralObservations/variables/--LNKGRP</href><title>Link Group ID</title><type>SDTM Class Variable</type></self></_links><definition>A sequence of characters used to uniquely identify a group of records, for a subject, in one domain and link it to 1 or more records for that subject in another domain.</definition><examples>A value that links multiple tumor measurement/assessments to a single response to therapy.</examples><label>Link Group ID</label><name>--LNKGRP</name><notes>This will usually be a many-to-one relationship.</notes><ordinal>18</ordinal><role>Identifier</role><simpleDatatype>Char</simpleDatatype><variableCcode>C117049</variableCcode></classVariable><classVariable><_links><parentClass><href>/mdr/sdtm/2-1/classes/GeneralObservations</href><title>General Observations</title><type>Class</type></parentClass><parentProduct><href>/mdr/sdtm/2-1</href><title>Study Data Tabulation Model Version 2.1</title><type>Foundational Model</type></parentProduct><priorVersion><href>/mdr/sdtm/2-0/classes/GeneralObservations/variables/--BEATNO</href><title>ECG Beat Number</title><type>SDTM Class Variable</type></priorVersion><rootItem><href>/mdr/root/sdtm/classes/GeneralObservations/variables/--BEATNO</href><title>Version-agnostic anchor resource for SDTM variable GeneralObservations.--BEATNO</title><type>Root Data Element</type></rootItem><self><href>/mdr/sdtm/2-1/classes/GeneralObservations/variables/--BEATNO</href><title>ECG Beat Number</title><type>SDTM Class Variable</type></self></_links><label>ECG Beat Number</label><name>--BEATNO</name><notes>A sequence number that identifies the beat within an ECG.</notes><ordinal>19</ordinal><role>Identifier</role><simpleDatatype>Num</simpleDatatype><usageRestrictions>EG Domain only</usageRestrictions></classVariable><classVariable><_links><parentClass><href>/mdr/sdtm/2-1/classes/GeneralObservations</href><title>General Observations</title><type>Class</type></parentClass><parentProduct><href>/mdr/sdtm/2-1</href><title>Study Data Tabulation Model Version 2.1</title><type>Foundational Model</type></parentProduct><priorVersion><href>/mdr/sdtm/2-0/classes/GeneralObservations/variables/VISITNUM</href><title>Visit Number</title><type>SDTM Class Variable</type></priorVersion><rootItem><href>/mdr/root/sdtm/classes/GeneralObservations/variables/VISITNUM</href><title>Version-agnostic anchor resource for SDTM variable GeneralObservations.VISITNUM</title><type>Root Data Element</type></rootItem><self><href>/mdr/sdtm/2-1/classes/GeneralObservations/variables/VISITNUM</href><title>Visit Number</title><type>SDTM Class Variable</type></self></_links><definition>An assigned numeric identifier that aligns to the chronological order of a clinical encounter.</definition><examples>1, 1.1, 503.75</examples><label>Visit Number</label><name>VISITNUM</name><notes>Numeric version of VISIT, used for sorting. VISITNUM does not have to be an integer value.</notes><ordinal>20</ordinal><role>Timing</role><simpleDatatype>Num</simpleDatatype><variableCcode>C83101</variableCcode></classVariable><classVariable><_links><parentClass><href>/mdr/sdtm/2-1/classes/GeneralObservations</href><title>General Observations</title><type>Class</type></parentClass><parentProduct><href>/mdr/sdtm/2-1</href><title>Study Data Tabulation Model Version 2.1</title><type>Foundational Model</type></parentProduct><priorVersion><href>/mdr/sdtm/2-0/classes/GeneralObservations/variables/VISIT</href><title>Visit Name</title><type>SDTM Class Variable</type></priorVersion><rootItem><href>/mdr/root/sdtm/classes/GeneralObservations/variables/VISIT</href><title>Version-agnostic anchor resource for SDTM variable GeneralObservations.VISIT</title><type>Root Data Element</type></rootItem><self><href>/mdr/sdtm/2-1/classes/GeneralObservations/variables/VISIT</href><title>Visit Name</title><type>SDTM Class Variable</type></self></_links><definition>The label for a protocol-defined clinical encounter.</definition><label>Visit Name</label><name>VISIT</name><ordinal>21</ordinal><role>Timing</role><simpleDatatype>Char</simpleDatatype><variableCcode>C171010</variableCcode></classVariable><classVariable><_links><parentClass><href>/mdr/sdtm/2-1/classes/GeneralObservations</href><title>General Observations</title><type>Class</type></parentClass><parentProduct><href>/mdr/sdtm/2-1</href><title>Study Data Tabulation Model Version 2.1</title><type>Foundational Model</type></parentProduct><priorVersion><href>/mdr/sdtm/2-0/classes/GeneralObservations/variables/VISITDY</href><title>Planned Study Day of Visit</title><type>SDTM Class Variable</type></priorVersion><rootItem><href>/mdr/root/sdtm/classes/GeneralObservations/variables/VISITDY</href><title>Version-agnostic anchor resource for SDTM variable GeneralObservations.VISITDY</title><type>Root Data Element</type></rootItem><self><href>/mdr/sdtm/2-1/classes/GeneralObservations/variables/VISITDY</href><title>Planned Study Day of Visit</title><type>SDTM Class Variable</type></self></_links><definition>The planned study day of a clinical encounter relative to the sponsor-defined reference start date.</definition><label>Planned Study Day of Visit</label><name>VISITDY</name><notes>Should be an integer.</notes><ordinal>22</ordinal><role>Timing</role><simpleDatatype>Num</simpleDatatype><variableCcode>C171011</variableCcode></classVariable><classVariable><_links><parentClass><href>/mdr/sdtm/2-1/classes/GeneralObservations</href><title>General Observations</title><type>Class</type></parentClass><parentProduct><href>/mdr/sdtm/2-1</href><title>Study Data Tabulation Model Version 2.1</title><type>Foundational Model</type></parentProduct><priorVersion><href>/mdr/sdtm/2-0/classes/GeneralObservations/variables/TAETORD</href><title>Planned Order of Element Within Arm</title><type>SDTM Class Variable</type></priorVersion><rootItem><href>/mdr/root/sdtm/classes/GeneralObservations/variables/TAETORD</href><title>Version-agnostic anchor resource for SDTM variable GeneralObservations.TAETORD</title><type>Root Data Element</type></rootItem><self><href>/mdr/sdtm/2-1/classes/GeneralObservations/variables/TAETORD</href><title>Planned Order of Element Within Arm</title><type>SDTM Class Variable</type></self></_links><definition>An assigned numeric identifier that gives the planned order of the element within the trial arm of the study.</definition><label>Planned Order of Element Within Arm</label><name>TAETORD</name><notes>See Section 5.1.1.2, Trial Arms.</notes><ordinal>23</ordinal><role>Timing</role><simpleDatatype>Num</simpleDatatype><variableCcode>C83438</variableCcode></classVariable><classVariable><_links><parentClass><href>/mdr/sdtm/2-1/classes/GeneralObservations</href><title>General Observations</title><type>Class</type></parentClass><parentProduct><href>/mdr/sdtm/2-1</href><title>Study Data Tabulation Model Version 2.1</title><type>Foundational Model</type></parentProduct><priorVersion><href>/mdr/sdtm/2-0/classes/GeneralObservations/variables/EPOCH</href><title>Epoch</title><type>SDTM Class Variable</type></priorVersion><rootItem><href>/mdr/root/sdtm/classes/GeneralObservations/variables/EPOCH</href><title>Version-agnostic anchor resource for SDTM variable GeneralObservations.EPOCH</title><type>Root Data Element</type></rootItem><self><href>/mdr/sdtm/2-1/classes/GeneralObservations/variables/EPOCH</href><title>Epoch</title><type>SDTM Class Variable</type></self></_links><definition>A time period defined in the protocol with a study-specific purpose.</definition><label>Epoch</label><name>EPOCH</name><notes>The epoch associated with an observation is determined by the start date or start date and time of the observation, or the date/time of collection if start date/time is not collected (see Section 5.1.1.2, Trial Arms).</notes><ordinal>24</ordinal><role>Timing</role><simpleDatatype>Char</simpleDatatype><variableCcode>C71738</variableCcode></classVariable><classVariable><_links><parentClass><href>/mdr/sdtm/2-1/classes/GeneralObservations</href><title>General Observations</title><type>Class</type></parentClass><parentProduct><href>/mdr/sdtm/2-1</href><title>Study Data Tabulation Model Version 2.1</title><type>Foundational Model</type></parentProduct><priorVersion><href>/mdr/sdtm/2-0/classes/GeneralObservations/variables/RPHASE</href><title>Repro Phase</title><type>SDTM Class Variable</type></priorVersion><rootItem><href>/mdr/root/sdtm/classes/GeneralObservations/variables/RPHASE</href><title>Version-agnostic anchor resource for SDTM variable GeneralObservations.RPHASE</title><type>Root Data Element</type></rootItem><self><href>/mdr/sdtm/2-1/classes/GeneralObservations/variables/RPHASE</href><title>Repro Phase</title><type>SDTM Class Variable</type></self></_links><label>Repro Phase</label><name>RPHASE</name><notes>Reproductive phase with which the reproductive stage of the reproductive path is associated. Defined in Trial Paths domain. The RPHASE variable is Required when any Reproductive Phase Day variable is used.</notes><ordinal>25</ordinal><role>Timing</role><simpleDatatype>Char</simpleDatatype><usageRestrictions>Not in human clinical trials</usageRestrictions></classVariable><classVariable><_links><parentClass><href>/mdr/sdtm/2-1/classes/GeneralObservations</href><title>General Observations</title><type>Class</type></parentClass><parentProduct><href>/mdr/sdtm/2-1</href><title>Study Data Tabulation Model Version 2.1</title><type>Foundational Model</type></parentProduct><priorVersion><href>/mdr/sdtm/2-0/classes/GeneralObservations/variables/RPPLDY</href><title>Planned Repro Phase Day of Observation</title><type>SDTM Class Variable</type></priorVersion><rootItem><href>/mdr/root/sdtm/classes/GeneralObservations/variables/RPPLDY</href><title>Version-agnostic anchor resource for SDTM variable GeneralObservations.RPPLDY</title><type>Root Data Element</type></rootItem><self><href>/mdr/sdtm/2-1/classes/GeneralObservations/variables/RPPLDY</href><title>Planned Repro Phase Day of Observation</title><type>SDTM Class Variable</type></self></_links><definition>The day within the reproductive phase on which the test or observation was scheduled to occur.</definition><label>Planned Repro Phase Day of Observation</label><name>RPPLDY</name><notes>Expressed as an integer.</notes><ordinal>26</ordinal><role>Timing</role><simpleDatatype>Num</simpleDatatype><usageRestrictions>Not in human clinical trials</usageRestrictions><variableCcode>C170506</variableCcode></classVariable><classVariable><_links><parentClass><href>/mdr/sdtm/2-1/classes/GeneralObservations</href><title>General Observations</title><type>Class</type></parentClass><parentProduct><href>/mdr/sdtm/2-1</href><title>Study Data Tabulation Model Version 2.1</title><type>Foundational Model</type></parentProduct><priorVersion><href>/mdr/sdtm/2-0/classes/GeneralObservations/variables/RPPLSTDY</href><title>Planned Repro Phase Day of Obs Start</title><type>SDTM Class Variable</type></priorVersion><rootItem><href>/mdr/root/sdtm/classes/GeneralObservations/variables/RPPLSTDY</href><title>Version-agnostic anchor resource for SDTM variable GeneralObservations.RPPLSTDY</title><type>Root Data Element</type></rootItem><self><href>/mdr/sdtm/2-1/classes/GeneralObservations/variables/RPPLSTDY</href><title>Planned Repro Phase Day of Obs Start</title><type>SDTM Class Variable</type></self></_links><definition>The day within the reproductive phase on which the test or observation was scheduled to begin.</definition><label>Planned Repro Phase Day of Obs Start</label><name>RPPLSTDY</name><notes>Expressed as an integer.</notes><ordinal>27</ordinal><role>Timing</role><simpleDatatype>Num</simpleDatatype><usageRestrictions>Not in human clinical trials</usageRestrictions><variableCcode>C170508</variableCcode></classVariable><classVariable><_links><parentClass><href>/mdr/sdtm/2-1/classes/GeneralObservations</href><title>General Observations</title><type>Class</type></parentClass><parentProduct><href>/mdr/sdtm/2-1</href><title>Study Data Tabulation Model Version 2.1</title><type>Foundational Model</type></parentProduct><priorVersion><href>/mdr/sdtm/2-0/classes/GeneralObservations/variables/RPPLENDY</href><title>Planned Repro Phase Day of Obs End</title><type>SDTM Class Variable</type></priorVersion><rootItem><href>/mdr/root/sdtm/classes/GeneralObservations/variables/RPPLENDY</href><title>Version-agnostic anchor resource for SDTM variable GeneralObservations.RPPLENDY</title><type>Root Data Element</type></rootItem><self><href>/mdr/sdtm/2-1/classes/GeneralObservations/variables/RPPLENDY</href><title>Planned Repro Phase Day of Obs End</title><type>SDTM Class Variable</type></self></_links><definition>The day within the reproductive phase on which the test or observation was scheduled to end.</definition><label>Planned Repro Phase Day of Obs End</label><name>RPPLENDY</name><notes>Expressed as an integer.</notes><ordinal>28</ordinal><role>Timing</role><simpleDatatype>Num</simpleDatatype><usageRestrictions>Not in human clinical trials</usageRestrictions><variableCcode>C170507</variableCcode></classVariable><classVariable><_links><parentClass><href>/mdr/sdtm/2-1/classes/GeneralObservations</href><title>General Observations</title><type>Class</type></parentClass><parentProduct><href>/mdr/sdtm/2-1</href><title>Study Data Tabulation Model Version 2.1</title><type>Foundational Model</type></parentProduct><priorVersion><href>/mdr/sdtm/2-0/classes/GeneralObservations/variables/--DTC</href><title>Date/Time of Collection</title><type>SDTM Class Variable</type></priorVersion><rootItem><href>/mdr/root/sdtm/classes/GeneralObservations/variables/--DTC</href><title>Version-agnostic anchor resource for SDTM variable GeneralObservations.--DTC</title><type>Root Data Element</type></rootItem><self><href>/mdr/sdtm/2-1/classes/GeneralObservations/variables/--DTC</href><title>Date/Time of Collection</title><type>SDTM Class Variable</type></self></_links><definition>The date or date and time of the assessment or the specimen or data collection from the subject, represented in a standardized character format.</definition><describedValueDomain>ISO 8601 datetime or interval</describedValueDomain><label>Date/Time of Collection</label><name>--DTC</name><ordinal>29</ordinal><role>Timing</role><simpleDatatype>Char</simpleDatatype><variableCcode>C82515</variableCcode></classVariable><classVariable><_links><parentClass><href>/mdr/sdtm/2-1/classes/GeneralObservations</href><title>General Observations</title><type>Class</type></parentClass><parentProduct><href>/mdr/sdtm/2-1</href><title>Study Data Tabulation Model Version 2.1</title><type>Foundational Model</type></parentProduct><priorVersion><href>/mdr/sdtm/2-0/classes/GeneralObservations/variables/--STDTC</href><title>Start Date/Time of Observation</title><type>SDTM Class Variable</type></priorVersion><rootItem><href>/mdr/root/sdtm/classes/GeneralObservations/variables/--STDTC</href><title>Version-agnostic anchor resource for SDTM variable GeneralObservations.--STDTC</title><type>Root Data Element</type></rootItem><self><href>/mdr/sdtm/2-1/classes/GeneralObservations/variables/--STDTC</href><title>Start Date/Time of Observation</title><type>SDTM Class Variable</type></self></_links><definition>The start date or date and time of an intervention or event, represented in a standardized character format.</definition><describedValueDomain>ISO 8601 datetime or interval</describedValueDomain><label>Start Date/Time of Observation</label><name>--STDTC</name><notes>The start date of a Findings class record is stored in the --DTC variable.</notes><ordinal>30</ordinal><role>Timing</role><simpleDatatype>Char</simpleDatatype><usageRestrictions>Not in Findings class domains</usageRestrictions><variableCcode>C82517</variableCcode></classVariable><classVariable><_links><parentClass><href>/mdr/sdtm/2-1/classes/GeneralObservations</href><title>General Observations</title><type>Class</type></parentClass><parentProduct><href>/mdr/sdtm/2-1</href><title>Study Data Tabulation Model Version 2.1</title><type>Foundational Model</type></parentProduct><priorVersion><href>/mdr/sdtm/2-0/classes/GeneralObservations/variables/--ENDTC</href><title>End Date/Time of Observation</title><type>SDTM Class Variable</type></priorVersion><rootItem><href>/mdr/root/sdtm/classes/GeneralObservations/variables/--ENDTC</href><title>Version-agnostic anchor resource for SDTM variable GeneralObservations.--ENDTC</title><type>Root Data Element</type></rootItem><self><href>/mdr/sdtm/2-1/classes/GeneralObservations/variables/--ENDTC</href><title>End Date/Time of Observation</title><type>SDTM Class Variable</type></self></_links><definition>The end date or date and time of an intervention, event, or finding, represented in a standardized character format.</definition><describedValueDomain>ISO 8601 datetime or interval</describedValueDomain><label>End Date/Time of Observation</label><name>--ENDTC</name><ordinal>31</ordinal><role>Timing</role><simpleDatatype>Char</simpleDatatype><variableCcode>C82516</variableCcode></classVariable><classVariable><_links><parentClass><href>/mdr/sdtm/2-1/classes/GeneralObservations</href><title>General Observations</title><type>Class</type></parentClass><parentProduct><href>/mdr/sdtm/2-1</href><title>Study Data Tabulation Model Version 2.1</title><type>Foundational Model</type></parentProduct><priorVersion><href>/mdr/sdtm/2-0/classes/GeneralObservations/variables/--DY</href><title>Study Day of Visit/Collection/Exam</title><type>SDTM Class Variable</type></priorVersion><rootItem><href>/mdr/root/sdtm/classes/GeneralObservations/variables/--DY</href><title>Version-agnostic anchor resource for SDTM variable GeneralObservations.--DY</title><type>Root Data Element</type></rootItem><self><href>/mdr/sdtm/2-1/classes/GeneralObservations/variables/--DY</href><title>Study Day of Visit/Collection/Exam</title><type>SDTM Class Variable</type></self></_links><definition>The number of days from the sponsor-defined reference start date to the date of collection (--DTC), used in study data tabulation.</definition><label>Study Day of Visit/Collection/Exam</label><name>--DY</name><notes>The sponsor-defined reference start date is RFSTDTC in Demographics.</notes><ordinal>32</ordinal><role>Timing</role><simpleDatatype>Num</simpleDatatype><variableCcode>C170993</variableCcode></classVariable><classVariable><_links><parentClass><href>/mdr/sdtm/2-1/classes/GeneralObservations</href><title>General Observations</title><type>Class</type></parentClass><parentProduct><href>/mdr/sdtm/2-1</href><title>Study Data Tabulation Model Version 2.1</title><type>Foundational Model</type></parentProduct><priorVersion><href>/mdr/sdtm/2-0/classes/GeneralObservations/variables/--STDY</href><title>Study Day of Start of Observation</title><type>SDTM Class Variable</type></priorVersion><rootItem><href>/mdr/root/sdtm/classes/GeneralObservations/variables/--STDY</href><title>Version-agnostic anchor resource for SDTM variable GeneralObservations.--STDY</title><type>Root Data Element</type></rootItem><self><href>/mdr/sdtm/2-1/classes/GeneralObservations/variables/--STDY</href><title>Study Day of Start of Observation</title><type>SDTM Class Variable</type></self></_links><definition>The number of days from the sponsor-defined reference start date to the start of an intervention or event (--STDTC), used for study data tabulation.</definition><label>Study Day of Start of Observation</label><name>--STDY</name><notes>The sponsor-defined reference start date is RFSTDTC in Demographics.</notes><ordinal>33</ordinal><role>Timing</role><simpleDatatype>Num</simpleDatatype><usageRestrictions>Not in Findings class domains</usageRestrictions><variableCcode>C171005</variableCcode></classVariable><classVariable><_links><parentClass><href>/mdr/sdtm/2-1/classes/GeneralObservations</href><title>General Observations</title><type>Class</type></parentClass><parentProduct><href>/mdr/sdtm/2-1</href><title>Study Data Tabulation Model Version 2.1</title><type>Foundational Model</type></parentProduct><priorVersion><href>/mdr/sdtm/2-0/classes/GeneralObservations/variables/--ENDY</href><title>Study Day of End of Observation</title><type>SDTM Class Variable</type></priorVersion><rootItem><href>/mdr/root/sdtm/classes/GeneralObservations/variables/--ENDY</href><title>Version-agnostic anchor resource for SDTM variable GeneralObservations.--ENDY</title><type>Root Data Element</type></rootItem><self><href>/mdr/sdtm/2-1/classes/GeneralObservations/variables/--ENDY</href><title>Study Day of End of Observation</title><type>SDTM Class Variable</type></self></_links><definition>The number of days from the sponsor-defined reference start date to the end of an intervention, event, or finding (--ENDTC), used for study data tabulation.</definition><label>Study Day of End of Observation</label><name>--ENDY</name><notes>The sponsor-defined reference start date is RFSTDTC in Demographics.</notes><ordinal>34</ordinal><role>Timing</role><simpleDatatype>Num</simpleDatatype><variableCcode>C170995</variableCcode></classVariable><classVariable><_links><parentClass><href>/mdr/sdtm/2-1/classes/GeneralObservations</href><title>General Observations</title><type>Class</type></parentClass><parentProduct><href>/mdr/sdtm/2-1</href><title>Study Data Tabulation Model Version 2.1</title><type>Foundational Model</type></parentProduct><priorVersion><href>/mdr/sdtm/2-0/classes/GeneralObservations/variables/--NOMDY</href><title>Nominal Study Day for Tabulations</title><type>SDTM Class Variable</type></priorVersion><rootItem><href>/mdr/root/sdtm/classes/GeneralObservations/variables/--NOMDY</href><title>Version-agnostic anchor resource for SDTM variable GeneralObservations.--NOMDY</title><type>Root Data Element</type></rootItem><self><href>/mdr/sdtm/2-1/classes/GeneralObservations/variables/--NOMDY</href><title>Nominal Study Day for Tabulations</title><type>SDTM Class Variable</type></self></_links><definition>The nominal study day, relative to the sponsor-defined reference start date, used by data collection and reporting systems for grouping records for observations that may be scheduled to occur on different days into a single study day (e.g., for output on a tabulation report).</definition><label>Nominal Study Day for Tabulations</label><name>--NOMDY</name><ordinal>35</ordinal><role>Timing</role><simpleDatatype>Num</simpleDatatype><usageRestrictions>Not in human clinical trials</usageRestrictions><variableCcode>C170498</variableCcode></classVariable><classVariable><_links><parentClass><href>/mdr/sdtm/2-1/classes/GeneralObservations</href><title>General Observations</title><type>Class</type></parentClass><parentProduct><href>/mdr/sdtm/2-1</href><title>Study Data Tabulation Model Version 2.1</title><type>Foundational Model</type></parentProduct><priorVersion><href>/mdr/sdtm/2-0/classes/GeneralObservations/variables/--NOMLBL</href><title>Label for Nominal Study Day</title><type>SDTM Class Variable</type></priorVersion><rootItem><href>/mdr/root/sdtm/classes/GeneralObservations/variables/--NOMLBL</href><title>Version-agnostic anchor resource for SDTM variable GeneralObservations.--NOMLBL</title><type>Root Data Element</type></rootItem><self><href>/mdr/sdtm/2-1/classes/GeneralObservations/variables/--NOMLBL</href><title>Label for Nominal Study Day</title><type>SDTM Class Variable</type></self></_links><definition>The name for a protocol-defined nominal study day.</definition><label>Label for Nominal Study Day</label><name>--NOMLBL</name><notes>As presented in the study report.</notes><ordinal>36</ordinal><role>Timing</role><simpleDatatype>Char</simpleDatatype><usageRestrictions>Not in human clinical trials</usageRestrictions><variableCcode>C170499</variableCcode></classVariable><classVariable><_links><parentClass><href>/mdr/sdtm/2-1/classes/GeneralObservations</href><title>General Observations</title><type>Class</type></parentClass><parentProduct><href>/mdr/sdtm/2-1</href><title>Study Data Tabulation Model Version 2.1</title><type>Foundational Model</type></parentProduct><priorVersion><href>/mdr/sdtm/2-0/classes/GeneralObservations/variables/--RPDY</href><title>Actual Repro Phase Day of Observation</title><type>SDTM Class Variable</type></priorVersion><rootItem><href>/mdr/root/sdtm/classes/GeneralObservations/variables/--RPDY</href><title>Version-agnostic anchor resource for SDTM variable GeneralObservations.--RPDY</title><type>Root Data Element</type></rootItem><self><href>/mdr/sdtm/2-1/classes/GeneralObservations/variables/--RPDY</href><title>Actual Repro Phase Day of Observation</title><type>SDTM Class Variable</type></self></_links><definition>The day within the reproductive phase on which the test or observation occurred.</definition><label>Actual Repro Phase Day of Observation</label><name>--RPDY</name><notes>Expressed as an integer.</notes><ordinal>37</ordinal><role>Timing</role><simpleDatatype>Num</simpleDatatype><usageRestrictions>Not in human clinical trials</usageRestrictions><variableCcode>C170504</variableCcode></classVariable><classVariable><_links><parentClass><href>/mdr/sdtm/2-1/classes/GeneralObservations</href><title>General Observations</title><type>Class</type></parentClass><parentProduct><href>/mdr/sdtm/2-1</href><title>Study Data Tabulation Model Version 2.1</title><type>Foundational Model</type></parentProduct><priorVersion><href>/mdr/sdtm/2-0/classes/GeneralObservations/variables/--RPSTDY</href><title>Actual Repro Phase Day of Obs Start</title><type>SDTM Class Variable</type></priorVersion><rootItem><href>/mdr/root/sdtm/classes/GeneralObservations/variables/--RPSTDY</href><title>Version-agnostic anchor resource for SDTM variable GeneralObservations.--RPSTDY</title><type>Root Data Element</type></rootItem><self><href>/mdr/sdtm/2-1/classes/GeneralObservations/variables/--RPSTDY</href><title>Actual Repro Phase Day of Obs Start</title><type>SDTM Class Variable</type></self></_links><definition>The day within the reproductive phase on which the test or observation began.</definition><label>Actual Repro Phase Day of Obs Start</label><name>--RPSTDY</name><notes>Expressed as an integer.</notes><ordinal>38</ordinal><role>Timing</role><simpleDatatype>Num</simpleDatatype><usageRestrictions>Not in human clinical trials</usageRestrictions><variableCcode>C170509</variableCcode></classVariable><classVariable><_links><parentClass><href>/mdr/sdtm/2-1/classes/GeneralObservations</href><title>General Observations</title><type>Class</type></parentClass><parentProduct><href>/mdr/sdtm/2-1</href><title>Study Data Tabulation Model Version 2.1</title><type>Foundational Model</type></parentProduct><priorVersion><href>/mdr/sdtm/2-0/classes/GeneralObservations/variables/--RPENDY</href><title>Actual Repro Phase Day of Obs End</title><type>SDTM Class Variable</type></priorVersion><rootItem><href>/mdr/root/sdtm/classes/GeneralObservations/variables/--RPENDY</href><title>Version-agnostic anchor resource for SDTM variable GeneralObservations.--RPENDY</title><type>Root Data Element</type></rootItem><self><href>/mdr/sdtm/2-1/classes/GeneralObservations/variables/--RPENDY</href><title>Actual Repro Phase Day of Obs End</title><type>SDTM Class Variable</type></self></_links><definition>The day within the reproductive phase on which the test or observation ended.</definition><label>Actual Repro Phase Day of Obs End</label><name>--RPENDY</name><notes>Expressed as an integer.</notes><ordinal>39</ordinal><role>Timing</role><simpleDatatype>Num</simpleDatatype><usageRestrictions>Not in human clinical trials</usageRestrictions><variableCcode>C170505</variableCcode></classVariable><classVariable><_links><parentClass><href>/mdr/sdtm/2-1/classes/GeneralObservations</href><title>General Observations</title><type>Class</type></parentClass><parentProduct><href>/mdr/sdtm/2-1</href><title>Study Data Tabulation Model Version 2.1</title><type>Foundational Model</type></parentProduct><priorVersion><href>/mdr/sdtm/2-0/classes/GeneralObservations/variables/--XDY</href><title>Day of Obs Relative to Exposure</title><type>SDTM Class Variable</type></priorVersion><rootItem><href>/mdr/root/sdtm/classes/GeneralObservations/variables/--XDY</href><title>Version-agnostic anchor resource for SDTM variable GeneralObservations.--XDY</title><type>Root Data Element</type></rootItem><self><href>/mdr/sdtm/2-1/classes/GeneralObservations/variables/--XDY</href><title>Day of Obs Relative to Exposure</title><type>SDTM Class Variable</type></self></_links><label>Day of Obs Relative to Exposure</label><name>--XDY</name><notes>The actual study day of an intervention, event, or finding, derived relative to the first exposure to any protocol-specified treatment or product. Expressed in integer days relative to RFXSTDTC in Demographics.</notes><ordinal>40</ordinal><role>Timing</role><simpleDatatype>Num</simpleDatatype></classVariable><classVariable><_links><parentClass><href>/mdr/sdtm/2-1/classes/GeneralObservations</href><title>General Observations</title><type>Class</type></parentClass><parentProduct><href>/mdr/sdtm/2-1</href><title>Study Data Tabulation Model Version 2.1</title><type>Foundational Model</type></parentProduct><priorVersion><href>/mdr/sdtm/2-0/classes/GeneralObservations/variables/--XSTDY</href><title>Start Day of Obs Relative to Exposure</title><type>SDTM Class Variable</type></priorVersion><rootItem><href>/mdr/root/sdtm/classes/GeneralObservations/variables/--XSTDY</href><title>Version-agnostic anchor resource for SDTM variable GeneralObservations.--XSTDY</title><type>Root Data Element</type></rootItem><self><href>/mdr/sdtm/2-1/classes/GeneralObservations/variables/--XSTDY</href><title>Start Day of Obs Relative to Exposure</title><type>SDTM Class Variable</type></self></_links><label>Start Day of Obs Relative to Exposure</label><name>--XSTDY</name><notes>The actual study day of the start of an intervention or event, derived relative to the first exposure to any protocol-specified treatment or product. Expressed in integer days relative to RFXSTDTC in Demographics.</notes><ordinal>41</ordinal><role>Timing</role><simpleDatatype>Num</simpleDatatype><usageRestrictions>Not in Findings class domains</usageRestrictions></classVariable><classVariable><_links><parentClass><href>/mdr/sdtm/2-1/classes/GeneralObservations</href><title>General Observations</title><type>Class</type></parentClass><parentProduct><href>/mdr/sdtm/2-1</href><title>Study Data Tabulation Model Version 2.1</title><type>Foundational Model</type></parentProduct><priorVersion><href>/mdr/sdtm/2-0/classes/GeneralObservations/variables/--XENDY</href><title>End Day of Obs Relative to Exposure</title><type>SDTM Class Variable</type></priorVersion><rootItem><href>/mdr/root/sdtm/classes/GeneralObservations/variables/--XENDY</href><title>Version-agnostic anchor resource for SDTM variable GeneralObservations.--XENDY</title><type>Root Data Element</type></rootItem><self><href>/mdr/sdtm/2-1/classes/GeneralObservations/variables/--XENDY</href><title>End Day of Obs Relative to Exposure</title><type>SDTM Class Variable</type></self></_links><label>End Day of Obs Relative to Exposure</label><name>--XENDY</name><notes>The actual study day of the end of an intervention, event, or finding, derived relative to the first exposure to any protocol-specified treatment or product. Expressed in integer days relative to RFXSTDTC in Demographics.</notes><ordinal>42</ordinal><role>Timing</role><simpleDatatype>Num</simpleDatatype></classVariable><classVariable><_links><parentClass><href>/mdr/sdtm/2-1/classes/GeneralObservations</href><title>General Observations</title><type>Class</type></parentClass><parentProduct><href>/mdr/sdtm/2-1</href><title>Study Data Tabulation Model Version 2.1</title><type>Foundational Model</type></parentProduct><priorVersion><href>/mdr/sdtm/2-0/classes/GeneralObservations/variables/--CHDY</href><title>Day of Obs Rel to Challenge Agent</title><type>SDTM Class Variable</type></priorVersion><rootItem><href>/mdr/root/sdtm/classes/GeneralObservations/variables/--CHDY</href><title>Version-agnostic anchor resource for SDTM variable GeneralObservations.--CHDY</title><type>Root Data Element</type></rootItem><self><href>/mdr/sdtm/2-1/classes/GeneralObservations/variables/--CHDY</href><title>Day of Obs Rel to Challenge Agent</title><type>SDTM Class Variable</type></self></_links><label>Day of Obs Rel to Challenge Agent</label><name>--CHDY</name><notes>The actual study day of an intervention, event, or finding, derived relative to the first exposure to the challenge agent that induces the disease or condition that the investigational treatment is intended to cure, mitigate, treat, or prevent. Expressed in integer days relative to RFCSTDTC in Demographics.</notes><ordinal>43</ordinal><role>Timing</role><simpleDatatype>Num</simpleDatatype></classVariable><classVariable><_links><parentClass><href>/mdr/sdtm/2-1/classes/GeneralObservations</href><title>General Observations</title><type>Class</type></parentClass><parentProduct><href>/mdr/sdtm/2-1</href><title>Study Data Tabulation Model Version 2.1</title><type>Foundational Model</type></parentProduct><priorVersion><href>/mdr/sdtm/2-0/classes/GeneralObservations/variables/--CHSTDY</href><title>Start Day of Obs Rel to Challenge Agent</title><type>SDTM Class Variable</type></priorVersion><rootItem><href>/mdr/root/sdtm/classes/GeneralObservations/variables/--CHSTDY</href><title>Version-agnostic anchor resource for SDTM variable GeneralObservations.--CHSTDY</title><type>Root Data Element</type></rootItem><self><href>/mdr/sdtm/2-1/classes/GeneralObservations/variables/--CHSTDY</href><title>Start Day of Obs Rel to Challenge Agent</title><type>SDTM Class Variable</type></self></_links><label>Start Day of Obs Rel to Challenge Agent</label><name>--CHSTDY</name><notes>The actual study day of the start of an intervention or event derived relative to the first exposure to the challenge agent that induces the disease or condition that the investigational treatment is intended to c ure, mitigate, treat, or prevent. Expressed in integer days relative to RFCSTDTC in Demographics.</notes><ordinal>44</ordinal><role>Timing</role><simpleDatatype>Num</simpleDatatype><usageRestrictions>Not in Findings class domains</usageRestrictions></classVariable><classVariable><_links><parentClass><href>/mdr/sdtm/2-1/classes/GeneralObservations</href><title>General Observations</title><type>Class</type></parentClass><parentProduct><href>/mdr/sdtm/2-1</href><title>Study Data Tabulation Model Version 2.1</title><type>Foundational Model</type></parentProduct><priorVersion><href>/mdr/sdtm/2-0/classes/GeneralObservations/variables/--CHENDY</href><title>End Day of Obs Rel to Challenge Agent</title><type>SDTM Class Variable</type></priorVersion><rootItem><href>/mdr/root/sdtm/classes/GeneralObservations/variables/--CHENDY</href><title>Version-agnostic anchor resource for SDTM variable GeneralObservations.--CHENDY</title><type>Root Data Element</type></rootItem><self><href>/mdr/sdtm/2-1/classes/GeneralObservations/variables/--CHENDY</href><title>End Day of Obs Rel to Challenge Agent</title><type>SDTM Class Variable</type></self></_links><label>End Day of Obs Rel to Challenge Agent</label><name>--CHENDY</name><notes>The actual study day of the end of an intervention, event, or finding derived relative to the first exposure to the challenge agent that induces the disease or condition that the investigational treatment is intended to cure, mitigate, treat, or prevent. Expressed in integer days relative to RFCSTDTC in Demographics.</notes><ordinal>45</ordinal><role>Timing</role><simpleDatatype>Num</simpleDatatype></classVariable><classVariable><_links><parentClass><href>/mdr/sdtm/2-1/classes/GeneralObservations</href><title>General Observations</title><type>Class</type></parentClass><parentProduct><href>/mdr/sdtm/2-1</href><title>Study Data Tabulation Model Version 2.1</title><type>Foundational Model</type></parentProduct><priorVersion><href>/mdr/sdtm/2-0/classes/GeneralObservations/variables/--DUR</href><title>Collected Duration</title><type>SDTM Class Variable</type></priorVersion><rootItem><href>/mdr/root/sdtm/classes/GeneralObservations/variables/--DUR</href><title>Version-agnostic anchor resource for SDTM variable GeneralObservations.--DUR</title><type>Root Data Element</type></rootItem><self><href>/mdr/sdtm/2-1/classes/GeneralObservations/variables/--DUR</href><title>Collected Duration</title><type>SDTM Class Variable</type></self></_links><definition>The collected length of time during which an observation continues, represented in a standardized character format.</definition><describedValueDomain>ISO 8601 duration</describedValueDomain><label>Collected Duration</label><name>--DUR</name><notes>Used only if collected on the CRF and not derived.</notes><ordinal>46</ordinal><role>Timing</role><simpleDatatype>Char</simpleDatatype><variableCcode>C170992</variableCcode></classVariable><classVariable><_links><parentClass><href>/mdr/sdtm/2-1/classes/GeneralObservations</href><title>General Observations</title><type>Class</type></parentClass><parentProduct><href>/mdr/sdtm/2-1</href><title>Study Data Tabulation Model Version 2.1</title><type>Foundational Model</type></parentProduct><priorVersion><href>/mdr/sdtm/2-0/classes/GeneralObservations/variables/--TPT</href><title>Planned Time Point Name</title><type>SDTM Class Variable</type></priorVersion><rootItem><href>/mdr/root/sdtm/classes/GeneralObservations/variables/--TPT</href><title>Version-agnostic anchor resource for SDTM variable GeneralObservations.--TPT</title><type>Root Data Element</type></rootItem><self><href>/mdr/sdtm/2-1/classes/GeneralObservations/variables/--TPT</href><title>Planned Time Point Name</title><type>SDTM Class Variable</type></self></_links><definition>The description of the time when a protocol-defined activity is planned to occur, used for study data tabulation.</definition><examples>"PREDOSE", "1 HOUR POST-DOSE"</examples><label>Planned Time Point Name</label><name>--TPT</name><notes>This may be represented as an elapsed time relative to a fixed reference point (e.g., time since last dose). See --TPTNUM and --TPTREF.</notes><ordinal>47</ordinal><role>Timing</role><simpleDatatype>Char</simpleDatatype><variableCcode>C171029</variableCcode></classVariable><classVariable><_links><parentClass><href>/mdr/sdtm/2-1/classes/GeneralObservations</href><title>General Observations</title><type>Class</type></parentClass><parentProduct><href>/mdr/sdtm/2-1</href><title>Study Data Tabulation Model Version 2.1</title><type>Foundational Model</type></parentProduct><priorVersion><href>/mdr/sdtm/2-0/classes/GeneralObservations/variables/--TPTNUM</href><title>Planned Time Point Number</title><type>SDTM Class Variable</type></priorVersion><rootItem><href>/mdr/root/sdtm/classes/GeneralObservations/variables/--TPTNUM</href><title>Version-agnostic anchor resource for SDTM variable GeneralObservations.--TPTNUM</title><type>Root Data Element</type></rootItem><self><href>/mdr/sdtm/2-1/classes/GeneralObservations/variables/--TPTNUM</href><title>Planned Time Point Number</title><type>SDTM Class Variable</type></self></_links><definition>The numeric identifier of when an observation is planned to occur.</definition><label>Planned Time Point Number</label><name>--TPTNUM</name><notes>Used in sorting.</notes><ordinal>48</ordinal><role>Timing</role><simpleDatatype>Num</simpleDatatype><variableCcode>C82545</variableCcode></classVariable><classVariable><_links><parentClass><href>/mdr/sdtm/2-1/classes/GeneralObservations</href><title>General Observations</title><type>Class</type></parentClass><parentProduct><href>/mdr/sdtm/2-1</href><title>Study Data Tabulation Model Version 2.1</title><type>Foundational Model</type></parentProduct><priorVersion><href>/mdr/sdtm/2-0/classes/GeneralObservations/variables/--ELTM</href><title>Planned Elapsed Time from Time Point Ref</title><type>SDTM Class Variable</type></priorVersion><rootItem><href>/mdr/root/sdtm/classes/GeneralObservations/variables/--ELTM</href><title>Version-agnostic anchor resource for SDTM variable GeneralObservations.--ELTM</title><type>Root Data Element</type></rootItem><self><href>/mdr/sdtm/2-1/classes/GeneralObservations/variables/--ELTM</href><title>Planned Elapsed Time from Time Point Ref</title><type>SDTM Class Variable</type></self></_links><definition>The interval of time between a planned time point and a fixed reference point, represented in a standardized character format.</definition><describedValueDomain>ISO 8601 duration</describedValueDomain><label>Planned Elapsed Time from Time Point Ref</label><name>--ELTM</name><notes>The fixed reference point is in --TPTREF. This variable is useful where there are repetitive measures. Not a clock time or a date/time variable, but an interval.</notes><ordinal>49</ordinal><role>Timing</role><simpleDatatype>Char</simpleDatatype><variableCcode>C170994</variableCcode></classVariable><classVariable><_links><parentClass><href>/mdr/sdtm/2-1/classes/GeneralObservations</href><title>General Observations</title><type>Class</type></parentClass><parentProduct><href>/mdr/sdtm/2-1</href><title>Study Data Tabulation Model Version 2.1</title><type>Foundational Model</type></parentProduct><priorVersion><href>/mdr/sdtm/2-0/classes/GeneralObservations/variables/--TPTREF</href><title>Time Point Reference</title><type>SDTM Class Variable</type></priorVersion><rootItem><href>/mdr/root/sdtm/classes/GeneralObservations/variables/--TPTREF</href><title>Version-agnostic anchor resource for SDTM variable GeneralObservations.--TPTREF</title><type>Root Data Element</type></rootItem><self><href>/mdr/sdtm/2-1/classes/GeneralObservations/variables/--TPTREF</href><title>Time Point Reference</title><type>SDTM Class Variable</type></self></_links><definition>The description of a time point that acts as a fixed reference for a series of planned time points, used for study data tabulation.</definition><examples>"PREVIOUS DOSE", "PREVIOUS MEAL"</examples><label>Time Point Reference</label><name>--TPTREF</name><notes>Description of the fixed reference point referred to by --ELTM, --TPTNUM, --TPT, --STINT, and --ENINT.</notes><ordinal>50</ordinal><role>Timing</role><simpleDatatype>Char</simpleDatatype><variableCcode>C171030</variableCcode></classVariable><classVariable><_links><parentClass><href>/mdr/sdtm/2-1/classes/GeneralObservations</href><title>General Observations</title><type>Class</type></parentClass><parentProduct><href>/mdr/sdtm/2-1</href><title>Study Data Tabulation Model Version 2.1</title><type>Foundational Model</type></parentProduct><priorVersion><href>/mdr/sdtm/2-0/classes/GeneralObservations/variables/--RFTDTC</href><title>Date/Time of Reference Time Point</title><type>SDTM Class Variable</type></priorVersion><rootItem><href>/mdr/root/sdtm/classes/GeneralObservations/variables/--RFTDTC</href><title>Version-agnostic anchor resource for SDTM variable GeneralObservations.--RFTDTC</title><type>Root Data Element</type></rootItem><self><href>/mdr/sdtm/2-1/classes/GeneralObservations/variables/--RFTDTC</href><title>Date/Time of Reference Time Point</title><type>SDTM Class Variable</type></self></_links><definition>The actual date or date and time of a time point that acts as a fixed reference for a series of planned time points, represented in a standardized character format.</definition><describedValueDomain>ISO 8601 datetime or interval</describedValueDomain><label>Date/Time of Reference Time Point</label><name>--RFTDTC</name><notes>The fixed reference point is in --TPTREF.</notes><ordinal>51</ordinal><role>Timing</role><simpleDatatype>Char</simpleDatatype><variableCcode>C82518</variableCcode></classVariable><classVariable><_links><parentClass><href>/mdr/sdtm/2-1/classes/GeneralObservations</href><title>General Observations</title><type>Class</type></parentClass><parentProduct><href>/mdr/sdtm/2-1</href><title>Study Data Tabulation Model Version 2.1</title><type>Foundational Model</type></parentProduct><priorVersion><href>/mdr/sdtm/2-0/classes/GeneralObservations/variables/--STRF</href><title>Start Relative to Reference Period</title><type>SDTM Class Variable</type></priorVersion><rootItem><href>/mdr/root/sdtm/classes/GeneralObservations/variables/--STRF</href><title>Version-agnostic anchor resource for SDTM variable GeneralObservations.--STRF</title><type>Root Data Element</type></rootItem><self><href>/mdr/sdtm/2-1/classes/GeneralObservations/variables/--STRF</href><title>Start Relative to Reference Period</title><type>SDTM Class Variable</type></self></_links><definition>The characterization of the start of an observation relative to the study reference period.</definition><label>Start Relative to Reference Period</label><name>--STRF</name><notes>The sponsor-defined reference period is a continuous period of time defined by a discrete starting point and a discrete ending point represented by RFSTDTC and RFENDTC in Demographics.</notes><ordinal>52</ordinal><role>Timing</role><simpleDatatype>Char</simpleDatatype><variableCcode>C82559</variableCcode></classVariable><classVariable><_links><parentClass><href>/mdr/sdtm/2-1/classes/GeneralObservations</href><title>General Observations</title><type>Class</type></parentClass><parentProduct><href>/mdr/sdtm/2-1</href><title>Study Data Tabulation Model Version 2.1</title><type>Foundational Model</type></parentProduct><priorVersion><href>/mdr/sdtm/2-0/classes/GeneralObservations/variables/--ENRF</href><title>End Relative to Reference Period</title><type>SDTM Class Variable</type></priorVersion><rootItem><href>/mdr/root/sdtm/classes/GeneralObservations/variables/--ENRF</href><title>Version-agnostic anchor resource for SDTM variable GeneralObservations.--ENRF</title><type>Root Data Element</type></rootItem><self><href>/mdr/sdtm/2-1/classes/GeneralObservations/variables/--ENRF</href><title>End Relative to Reference Period</title><type>SDTM Class Variable</type></self></_links><definition>The characterization of the end of an observation relative to the study reference period.</definition><label>End Relative to Reference Period</label><name>--ENRF</name><notes>The sponsor-defined reference period is a continuous period of time defined by a discrete starting point and a discrete ending point represented by RFSTDTC and RFENDTC in Demographics.</notes><ordinal>53</ordinal><role>Timing</role><simpleDatatype>Char</simpleDatatype><variableCcode>C82557</variableCcode></classVariable><classVariable><_links><parentClass><href>/mdr/sdtm/2-1/classes/GeneralObservations</href><title>General Observations</title><type>Class</type></parentClass><parentProduct><href>/mdr/sdtm/2-1</href><title>Study Data Tabulation Model Version 2.1</title><type>Foundational Model</type></parentProduct><priorVersion><href>/mdr/sdtm/2-0/classes/GeneralObservations/variables/--EVLINT</href><title>Evaluation Interval</title><type>SDTM Class Variable</type></priorVersion><rootItem><href>/mdr/root/sdtm/classes/GeneralObservations/variables/--EVLINT</href><title>Version-agnostic anchor resource for SDTM variable GeneralObservations.--EVLINT</title><type>Root Data Element</type></rootItem><self><href>/mdr/sdtm/2-1/classes/GeneralObservations/variables/--EVLINT</href><title>Evaluation Interval</title><type>SDTM Class Variable</type></self></_links><definition>The planned time interval for which an observation is assessed, represented in a standardized character format.</definition><describedValueDomain>ISO 8601 duration or interval</describedValueDomain><examples>-P2M to represent a period of the past 2 months as the evaluation interval for a question from a questionnaire.</examples><label>Evaluation Interval</label><name>--EVLINT</name><notes>Usually used with --DTC to describe an interval of this duration that ended at the time represented in --DTC.</notes><ordinal>54</ordinal><role>Timing</role><simpleDatatype>Char</simpleDatatype><variableCcode>C82534</variableCcode></classVariable><classVariable><_links><parentClass><href>/mdr/sdtm/2-1/classes/GeneralObservations</href><title>General Observations</title><type>Class</type></parentClass><parentProduct><href>/mdr/sdtm/2-1</href><title>Study Data Tabulation Model Version 2.1</title><type>Foundational Model</type></parentProduct><priorVersion><href>/mdr/sdtm/2-0/classes/GeneralObservations/variables/--EVINTX</href><title>Evaluation Interval Text</title><type>SDTM Class Variable</type></priorVersion><rootItem><href>/mdr/root/sdtm/classes/GeneralObservations/variables/--EVINTX</href><title>Version-agnostic anchor resource for SDTM variable GeneralObservations.--EVINTX</title><type>Root Data Element</type></rootItem><self><href>/mdr/sdtm/2-1/classes/GeneralObservations/variables/--EVINTX</href><title>Evaluation Interval Text</title><type>SDTM Class Variable</type></self></_links><definition>A textual description of the planned time interval for which an observation is assessed, where the interval is not able to be represented in a standardized character format.</definition><examples>"LIFETIME", "LAST NIGHT", "RECENTLY", "OVER THE LAST FEW WEEKS"</examples><label>Evaluation Interval Text</label><name>--EVINTX</name><notes>A value that cannot be represented in ISO 8601 format.</notes><ordinal>55</ordinal><role>Timing</role><simpleDatatype>Char</simpleDatatype><variableCcode>C117044</variableCcode></classVariable><classVariable><_links><parentClass><href>/mdr/sdtm/2-1/classes/GeneralObservations</href><title>General Observations</title><type>Class</type></parentClass><parentProduct><href>/mdr/sdtm/2-1</href><title>Study Data Tabulation Model Version 2.1</title><type>Foundational Model</type></parentProduct><priorVersion><href>/mdr/sdtm/2-0/classes/GeneralObservations/variables/--STRTPT</href><title>Start Relative to Reference Time Point</title><type>SDTM Class Variable</type></priorVersion><rootItem><href>/mdr/root/sdtm/classes/GeneralObservations/variables/--STRTPT</href><title>Version-agnostic anchor resource for SDTM variable GeneralObservations.--STRTPT</title><type>Root Data Element</type></rootItem><self><href>/mdr/sdtm/2-1/classes/GeneralObservations/variables/--STRTPT</href><title>Start Relative to Reference Time Point</title><type>SDTM Class Variable</type></self></_links><definition>The characterization of the start of an observation relative to a reference time point.</definition><label>Start Relative to Reference Time Point</label><name>--STRTPT</name><notes>The sponsor-defined reference time point is in --STTPT.</notes><ordinal>56</ordinal><role>Timing</role><simpleDatatype>Char</simpleDatatype><variableCcode>C82560</variableCcode></classVariable><classVariable><_links><parentClass><href>/mdr/sdtm/2-1/classes/GeneralObservations</href><title>General Observations</title><type>Class</type></parentClass><parentProduct><href>/mdr/sdtm/2-1</href><title>Study Data Tabulation Model Version 2.1</title><type>Foundational Model</type></parentProduct><priorVersion><href>/mdr/sdtm/2-0/classes/GeneralObservations/variables/--STTPT</href><title>Start Reference Time Point</title><type>SDTM Class Variable</type></priorVersion><rootItem><href>/mdr/root/sdtm/classes/GeneralObservations/variables/--STTPT</href><title>Version-agnostic anchor resource for SDTM variable GeneralObservations.--STTPT</title><type>Root Data Element</type></rootItem><self><href>/mdr/sdtm/2-1/classes/GeneralObservations/variables/--STTPT</href><title>Start Reference Time Point</title><type>SDTM Class Variable</type></self></_links><definition>The description or date and/or time of a time point that acts as a fixed reference for characterizing the start of an observation.</definition><examples>"2003-12-15", "VISIT 1"</examples><label>Start Reference Time Point</label><name>--STTPT</name><notes>This is the sponsor-defined reference point referred to by --STRTPT.</notes><ordinal>57</ordinal><role>Timing</role><simpleDatatype>Char</simpleDatatype><variableCcode>C82575</variableCcode></classVariable><classVariable><_links><parentClass><href>/mdr/sdtm/2-1/classes/GeneralObservations</href><title>General Observations</title><type>Class</type></parentClass><parentProduct><href>/mdr/sdtm/2-1</href><title>Study Data Tabulation Model Version 2.1</title><type>Foundational Model</type></parentProduct><priorVersion><href>/mdr/sdtm/2-0/classes/GeneralObservations/variables/--ENRTPT</href><title>End Relative to Reference Time Point</title><type>SDTM Class Variable</type></priorVersion><rootItem><href>/mdr/root/sdtm/classes/GeneralObservations/variables/--ENRTPT</href><title>Version-agnostic anchor resource for SDTM variable GeneralObservations.--ENRTPT</title><type>Root Data Element</type></rootItem><self><href>/mdr/sdtm/2-1/classes/GeneralObservations/variables/--ENRTPT</href><title>End Relative to Reference Time Point</title><type>SDTM Class Variable</type></self></_links><definition>The characterization of the end of an observation relative to a reference time point.</definition><label>End Relative to Reference Time Point</label><name>--ENRTPT</name><notes>The sponsor-defined reference time point is in --ENTPT.</notes><ordinal>58</ordinal><role>Timing</role><simpleDatatype>Char</simpleDatatype><variableCcode>C82558</variableCcode></classVariable><classVariable><_links><parentClass><href>/mdr/sdtm/2-1/classes/GeneralObservations</href><title>General Observations</title><type>Class</type></parentClass><parentProduct><href>/mdr/sdtm/2-1</href><title>Study Data Tabulation Model Version 2.1</title><type>Foundational Model</type></parentProduct><priorVersion><href>/mdr/sdtm/2-0/classes/GeneralObservations/variables/--ENTPT</href><title>End Reference Time Point</title><type>SDTM Class Variable</type></priorVersion><rootItem><href>/mdr/root/sdtm/classes/GeneralObservations/variables/--ENTPT</href><title>Version-agnostic anchor resource for SDTM variable GeneralObservations.--ENTPT</title><type>Root Data Element</type></rootItem><self><href>/mdr/sdtm/2-1/classes/GeneralObservations/variables/--ENTPT</href><title>End Reference Time Point</title><type>SDTM Class Variable</type></self></_links><definition>The description or date and/or time of a time point that acts as a fixed reference for characterizing the end of an observation.</definition><examples>"2003-12-25", "VISIT 2"</examples><label>End Reference Time Point</label><name>--ENTPT</name><notes>This is the sponsor-defined reference point referred to by --ENRTPT.</notes><ordinal>59</ordinal><role>Timing</role><simpleDatatype>Char</simpleDatatype><variableCcode>C82574</variableCcode></classVariable><classVariable><_links><parentClass><href>/mdr/sdtm/2-1/classes/GeneralObservations</href><title>General Observations</title><type>Class</type></parentClass><parentProduct><href>/mdr/sdtm/2-1</href><title>Study Data Tabulation Model Version 2.1</title><type>Foundational Model</type></parentProduct><priorVersion><href>/mdr/sdtm/2-0/classes/GeneralObservations/variables/MIDS</href><title>Disease Milestone Instance Name</title><type>SDTM Class Variable</type></priorVersion><rootItem><href>/mdr/root/sdtm/classes/GeneralObservations/variables/MIDS</href><title>Version-agnostic anchor resource for SDTM variable GeneralObservations.MIDS</title><type>Root Data Element</type></rootItem><self><href>/mdr/sdtm/2-1/classes/GeneralObservations/variables/MIDS</href><title>Disease Milestone Instance Name</title><type>SDTM Class Variable</type></self></_links><label>Disease Milestone Instance Name</label><name>MIDS</name><notes>The name of a specific instance of a Disease Milestone Type (MIDSTYPE) described in the Trial Disease Milestones dataset (see Section 5.1.4.3, Trial Disease Milestones). This should be unique within a subject. Used only in conjunction with RELMIDS and MIDSDTC.</notes><ordinal>60</ordinal><role>Timing</role><simpleDatatype>Char</simpleDatatype></classVariable><classVariable><_links><parentClass><href>/mdr/sdtm/2-1/classes/GeneralObservations</href><title>General Observations</title><type>Class</type></parentClass><parentProduct><href>/mdr/sdtm/2-1</href><title>Study Data Tabulation Model Version 2.1</title><type>Foundational Model</type></parentProduct><priorVersion><href>/mdr/sdtm/2-0/classes/GeneralObservations/variables/RELMIDS</href><title>Temporal Relation to Milestone Instance</title><type>SDTM Class Variable</type></priorVersion><rootItem><href>/mdr/root/sdtm/classes/GeneralObservations/variables/RELMIDS</href><title>Version-agnostic anchor resource for SDTM variable GeneralObservations.RELMIDS</title><type>Root Data Element</type></rootItem><self><href>/mdr/sdtm/2-1/classes/GeneralObservations/variables/RELMIDS</href><title>Temporal Relation to Milestone Instance</title><type>SDTM Class Variable</type></self></_links><examples>"IMMEDIATELY BEFORE", "AT TIME OF", "AFTER"</examples><label>Temporal Relation to Milestone Instance</label><name>RELMIDS</name><notes>The temporal relationship of the observation to the Disease Milestone Instance Name in MIDS.</notes><ordinal>61</ordinal><role>Timing</role><simpleDatatype>Char</simpleDatatype></classVariable><classVariable><_links><parentClass><href>/mdr/sdtm/2-1/classes/GeneralObservations</href><title>General Observations</title><type>Class</type></parentClass><parentProduct><href>/mdr/sdtm/2-1</href><title>Study Data Tabulation Model Version 2.1</title><type>Foundational Model</type></parentProduct><priorVersion><href>/mdr/sdtm/2-0/classes/GeneralObservations/variables/MIDSDTC</href><title>Disease Milestone Instance Date/Time</title><type>SDTM Class Variable</type></priorVersion><rootItem><href>/mdr/root/sdtm/classes/GeneralObservations/variables/MIDSDTC</href><title>Version-agnostic anchor resource for SDTM variable GeneralObservations.MIDSDTC</title><type>Root Data Element</type></rootItem><self><href>/mdr/sdtm/2-1/classes/GeneralObservations/variables/MIDSDTC</href><title>Disease Milestone Instance Date/Time</title><type>SDTM Class Variable</type></self></_links><describedValueDomain>ISO 8601 datetime or interval</describedValueDomain><label>Disease Milestone Instance Date/Time</label><name>MIDSDTC</name><notes>The start date/time of the Disease Milestone Instance Name in MIDS.</notes><ordinal>62</ordinal><role>Timing</role><simpleDatatype>Char</simpleDatatype></classVariable><classVariable><_links><parentClass><href>/mdr/sdtm/2-1/classes/GeneralObservations</href><title>General Observations</title><type>Class</type></parentClass><parentProduct><href>/mdr/sdtm/2-1</href><title>Study Data Tabulation Model Version 2.1</title><type>Foundational Model</type></parentProduct><priorVersion><href>/mdr/sdtm/2-0/classes/GeneralObservations/variables/--STINT</href><title>Planned Start of Assessment Interval</title><type>SDTM Class Variable</type></priorVersion><rootItem><href>/mdr/root/sdtm/classes/GeneralObservations/variables/--STINT</href><title>Version-agnostic anchor resource for SDTM variable GeneralObservations.--STINT</title><type>Root Data Element</type></rootItem><self><href>/mdr/sdtm/2-1/classes/GeneralObservations/variables/--STINT</href><title>Planned Start of Assessment Interval</title><type>SDTM Class Variable</type></self></_links><definition>The start of a planned assessment interval relative to a reference time point, represented in a standardized character format.</definition><describedValueDomain>ISO 8601 duration</describedValueDomain><label>Planned Start of Assessment Interval</label><name>--STINT</name><notes>The reference time point is in --TPTREF. As this variable describes planned timing of an assessment, caution should be exercised when using outside of the Findings class of domains. In an Events or Interventions domain, it may refer to the interval over which --OCCUR is assessed.</notes><ordinal>63</ordinal><role>Timing</role><simpleDatatype>Char</simpleDatatype><variableCcode>C117061</variableCcode></classVariable><classVariable><_links><parentClass><href>/mdr/sdtm/2-1/classes/GeneralObservations</href><title>General Observations</title><type>Class</type></parentClass><parentProduct><href>/mdr/sdtm/2-1</href><title>Study Data Tabulation Model Version 2.1</title><type>Foundational Model</type></parentProduct><priorVersion><href>/mdr/sdtm/2-0/classes/GeneralObservations/variables/--ENINT</href><title>Planned End of Assessment Interval</title><type>SDTM Class Variable</type></priorVersion><rootItem><href>/mdr/root/sdtm/classes/GeneralObservations/variables/--ENINT</href><title>Version-agnostic anchor resource for SDTM variable GeneralObservations.--ENINT</title><type>Root Data Element</type></rootItem><self><href>/mdr/sdtm/2-1/classes/GeneralObservations/variables/--ENINT</href><title>Planned End of Assessment Interval</title><type>SDTM Class Variable</type></self></_links><definition>The end of a planned assessment interval relative to a reference time point, represented in a standardized character format.</definition><describedValueDomain>ISO 8601 duration</describedValueDomain><label>Planned End of Assessment Interval</label><name>--ENINT</name><notes>The reference time point is in --TPTREF. As this variable describes planned timing of an assessment, caution should be exercised when using outside of the Findings class of domains. In an Events or Interventions domain, it may refer to the interval over which --OCCUR is assessed.</notes><ordinal>64</ordinal><role>Timing</role><simpleDatatype>Char</simpleDatatype><variableCcode>C117042</variableCcode></classVariable><classVariable><_links><parentClass><href>/mdr/sdtm/2-1/classes/GeneralObservations</href><title>General Observations</title><type>Class</type></parentClass><parentProduct><href>/mdr/sdtm/2-1</href><title>Study Data Tabulation Model Version 2.1</title><type>Foundational Model</type></parentProduct><priorVersion><href>/mdr/sdtm/2-0/classes/GeneralObservations/variables/--DETECT</href><title>Time in Days to Detection</title><type>SDTM Class Variable</type></priorVersion><rootItem><href>/mdr/root/sdtm/classes/GeneralObservations/variables/--DETECT</href><title>Version-agnostic anchor resource for SDTM variable GeneralObservations.--DETECT</title><type>Root Data Element</type></rootItem><self><href>/mdr/sdtm/2-1/classes/GeneralObservations/variables/--DETECT</href><title>Time in Days to Detection</title><type>SDTM Class Variable</type></self></_links><definition>The number of days from the start of dosing to the earliest detection of a condition or pathogen.</definition><label>Time in Days to Detection</label><name>--DETECT</name><ordinal>65</ordinal><role>Timing</role><simpleDatatype>Num</simpleDatatype><usageRestrictions>Not in human clinical trials</usageRestrictions><variableCcode>C117041</variableCcode></classVariable><classVariable><_links><parentClass><href>/mdr/sdtm/2-1/classes/GeneralObservations</href><title>General Observations</title><type>Class</type></parentClass><parentProduct><href>/mdr/sdtm/2-1</href><title>Study Data Tabulation Model Version 2.1</title><type>Foundational Model</type></parentProduct><priorVersion><href>/mdr/sdtm/2-0/classes/GeneralObservations/variables/--PTFL</href><title>Point in Time Flag</title><type>SDTM Class Variable</type></priorVersion><rootItem><href>/mdr/root/sdtm/classes/GeneralObservations/variables/--PTFL</href><title>Version-agnostic anchor resource for SDTM variable GeneralObservations.--PTFL</title><type>Root Data Element</type></rootItem><self><href>/mdr/sdtm/2-1/classes/GeneralObservations/variables/--PTFL</href><title>Point in Time Flag</title><type>SDTM Class Variable</type></self></_links><label>Point in Time Flag</label><name>--PTFL</name><notes>An indication that the specimen was collected at a single point in time. The value is "Y" or null.</notes><ordinal>66</ordinal><role>Timing</role><simpleDatatype>Char</simpleDatatype><usageRestrictions>Only in Findings class specimen-based domains: BS, CP, GF, IS, LB, MB, MS, MI, PC, PP</usageRestrictions></classVariable><classVariable><_links><parentClass><href>/mdr/sdtm/2-1/classes/GeneralObservations</href><title>General Observations</title><type>Class</type></parentClass><parentProduct><href>/mdr/sdtm/2-1</href><title>Study Data Tabulation Model Version 2.1</title><type>Foundational Model</type></parentProduct><priorVersion><href>/mdr/sdtm/2-0/classes/GeneralObservations/variables/--PDUR</href><title>Planned Duration</title><type>SDTM Class Variable</type></priorVersion><rootItem><href>/mdr/root/sdtm/classes/GeneralObservations/variables/--PDUR</href><title>Version-agnostic anchor resource for SDTM variable GeneralObservations.--PDUR</title><type>Root Data Element</type></rootItem><self><href>/mdr/sdtm/2-1/classes/GeneralObservations/variables/--PDUR</href><title>Planned Duration</title><type>SDTM Class Variable</type></self></_links><describedValueDomain>ISO 8601 duration</describedValueDomain><label>Planned Duration</label><name>--PDUR</name><notes>Planned duration of a finding. For a sample-based finding, this could apply to the planned duration of specimen collection.</notes><ordinal>67</ordinal><role>Timing</role><simpleDatatype>Char</simpleDatatype><usageRestrictions>Only in Findings class specimen-based domains: BS, CP, GF, IS, LB, MB, MS, MI, PC, PP</usageRestrictions></classVariable><description>The majority of observations collected during a study can be divided among three general classes: Interventions, Events, or Findings. Datasets based on any of the general observation classes share a set of common Identifier and Timing variables. As a general rule, any valid Identifier or Timing variable is permissible for use in any submission dataset based on a general observation class. (Source: SDTM v2.1, Section 3.1)</description><label>General Observations</label><name>General Observations</name><ordinal>1</ordinal></class><class><_links><parentClass><href>/mdr/sdtm/2-1/classes/GeneralObservations</href><title>General Observations</title><type>Class</type></parentClass><parentProduct><href>/mdr/sdtm/2-1</href><title>Study Data Tabulation Model Version 2.1</title><type>Foundational Model</type></parentProduct><priorVersion><href>/mdr/sdtm/2-0/classes/Interventions</href><title>Interventions</title><type>Class</type></priorVersion><self><href>/mdr/sdtm/2-1/classes/Interventions</href><title>Interventions</title><type>Class</type></self></_links><classVariable><_links><parentClass><href>/mdr/sdtm/2-1/classes/Interventions</href><title>Interventions</title><type>Class</type></parentClass><parentProduct><href>/mdr/sdtm/2-1</href><title>Study Data Tabulation Model Version 2.1</title><type>Foundational Model</type></parentProduct><priorVersion><href>/mdr/sdtm/2-0/classes/Interventions/variables/--TRT</href><title>Name of Treatment</title><type>SDTM Class Variable</type></priorVersion><rootItem><href>/mdr/root/sdtm/classes/Interventions/variables/--TRT</href><title>Version-agnostic anchor resource for SDTM variable Interventions.--TRT</title><type>Root Data Element</type></rootItem><self><href>/mdr/sdtm/2-1/classes/Interventions/variables/--TRT</href><title>Name of Treatment or Product</title><type>SDTM Class Variable</type></self></_links><definition>The reported name of the drug, procedure, therapy, or product.</definition><label>Name of Treatment or Product</label><name>--TRT</name><notes>The topic for the intervention observation, usually the verbatim name of the treatment, drug, medicine, therapy, or product given during the dosing interval for the observation.</notes><ordinal>1</ordinal><role>Topic</role><simpleDatatype>Char</simpleDatatype><variableCcode>C82542</variableCcode></classVariable><classVariable><_links><parentClass><href>/mdr/sdtm/2-1/classes/Interventions</href><title>Interventions</title><type>Class</type></parentClass><parentProduct><href>/mdr/sdtm/2-1</href><title>Study Data Tabulation Model Version 2.1</title><type>Foundational Model</type></parentProduct><priorVersion><href>/mdr/sdtm/2-0/classes/Interventions/variables/--MODIFY</href><title>Modified Treatment Name</title><type>SDTM Class Variable</type></priorVersion><qualifiesVariable><href>/mdr/sdtm/2-1/classes/Interventions/variables/--TRT</href><title>Name of Treatment or Product</title><type>SDTM Class Variable</type></qualifiesVariable><rootItem><href>/mdr/root/sdtm/classes/Interventions/variables/--MODIFY</href><title>Version-agnostic anchor resource for SDTM variable Interventions.--MODIFY</title><type>Root Data Element</type></rootItem><self><href>/mdr/sdtm/2-1/classes/Interventions/variables/--MODIFY</href><title>Modified Treatment Name</title><type>SDTM Class Variable</type></self></_links><definition>A value which represents an alteration to a collected value for coding purposes.</definition><label>Modified Treatment Name</label><name>--MODIFY</name><notes>If the value for --TRT is modified for coding purposes, then the modified text is placed here.</notes><ordinal>2</ordinal><role>Synonym Qualifier</role><simpleDatatype>Char</simpleDatatype><variableCcode>C170998</variableCcode></classVariable><classVariable><_links><parentClass><href>/mdr/sdtm/2-1/classes/Interventions</href><title>Interventions</title><type>Class</type></parentClass><parentProduct><href>/mdr/sdtm/2-1</href><title>Study Data Tabulation Model Version 2.1</title><type>Foundational Model</type></parentProduct><priorVersion><href>/mdr/sdtm/2-0/classes/Interventions/variables/--DECOD</href><title>Standardized Treatment Name</title><type>SDTM Class Variable</type></priorVersion><qualifiesVariable><href>/mdr/sdtm/2-1/classes/Interventions/variables/--TRT</href><title>Name of Treatment or Product</title><type>SDTM Class Variable</type></qualifiesVariable><rootItem><href>/mdr/root/sdtm/classes/Interventions/variables/--DECOD</href><title>Version-agnostic anchor resource for SDTM variable Interventions.--DECOD</title><type>Root Data Element</type></rootItem><self><href>/mdr/sdtm/2-1/classes/Interventions/variables/--DECOD</href><title>Standardized Treatment Name</title><type>SDTM Class Variable</type></self></_links><definition>Standardized or dictionary-derived text for the description of an event or intervention.</definition><label>Standardized Treatment Name</label><name>--DECOD</name><notes>Equivalent to the generic drug name in WHODrug, or a term in SNOMED, ICD-9, or other published or sponsor-defined dictionaries.</notes><ordinal>3</ordinal><role>Synonym Qualifier</role><simpleDatatype>Char</simpleDatatype><variableCcode>C170991</variableCcode></classVariable><classVariable><_links><parentClass><href>/mdr/sdtm/2-1/classes/Interventions</href><title>Interventions</title><type>Class</type></parentClass><parentProduct><href>/mdr/sdtm/2-1</href><title>Study Data Tabulation Model Version 2.1</title><type>Foundational Model</type></parentProduct><priorVersion><href>/mdr/sdtm/2-0/classes/Interventions/variables/--MOOD</href><title>Mood</title><type>SDTM Class Variable</type></priorVersion><rootItem><href>/mdr/root/sdtm/classes/Interventions/variables/--MOOD</href><title>Version-agnostic anchor resource for SDTM variable Interventions.--MOOD</title><type>Root Data Element</type></rootItem><self><href>/mdr/sdtm/2-1/classes/Interventions/variables/--MOOD</href><title>Mood</title><type>SDTM Class Variable</type></self></_links><definition>The state that may be applied to a record to indicate its phase in a life cycle or business process (e.g., scheduled, performed).</definition><examples>"SCHEDULED", "PERFORMED"</examples><label>Mood</label><name>--MOOD</name><ordinal>4</ordinal><role>Record Qualifier</role><simpleDatatype>Char</simpleDatatype><variableCcode>C117051</variableCcode></classVariable><classVariable><_links><parentClass><href>/mdr/sdtm/2-1/classes/Interventions</href><title>Interventions</title><type>Class</type></parentClass><parentProduct><href>/mdr/sdtm/2-1</href><title>Study Data Tabulation Model Version 2.1</title><type>Foundational Model</type></parentProduct><priorVersion><href>/mdr/sdtm/2-0/classes/Interventions/variables/--CAT</href><title>Category</title><type>SDTM Class Variable</type></priorVersion><rootItem><href>/mdr/root/sdtm/classes/Interventions/variables/--CAT</href><title>Version-agnostic anchor resource for SDTM variable Interventions.--CAT</title><type>Root Data Element</type></rootItem><self><href>/mdr/sdtm/2-1/classes/Interventions/variables/--CAT</href><title>Category</title><type>SDTM Class Variable</type></self></_links><definition>A grouping or classification of the topic of the finding, event, or intervention.</definition><label>Category</label><name>--CAT</name><ordinal>5</ordinal><role>Grouping Qualifier</role><simpleDatatype>Char</simpleDatatype><variableCcode>C25372</variableCcode></classVariable><classVariable><_links><parentClass><href>/mdr/sdtm/2-1/classes/Interventions</href><title>Interventions</title><type>Class</type></parentClass><parentProduct><href>/mdr/sdtm/2-1</href><title>Study Data Tabulation Model Version 2.1</title><type>Foundational Model</type></parentProduct><priorVersion><href>/mdr/sdtm/2-0/classes/Interventions/variables/--SCAT</href><title>Subcategory</title><type>SDTM Class Variable</type></priorVersion><rootItem><href>/mdr/root/sdtm/classes/Interventions/variables/--SCAT</href><title>Version-agnostic anchor resource for SDTM variable Interventions.--SCAT</title><type>Root Data Element</type></rootItem><self><href>/mdr/sdtm/2-1/classes/Interventions/variables/--SCAT</href><title>Subcategory</title><type>SDTM Class Variable</type></self></_links><definition>A further grouping or classification of the category for the topic of the finding, event, or intervention.</definition><label>Subcategory</label><name>--SCAT</name><notes>The category is in --CAT.</notes><ordinal>6</ordinal><role>Grouping Qualifier</role><simpleDatatype>Char</simpleDatatype><variableCcode>C25692</variableCcode></classVariable><classVariable><_links><parentClass><href>/mdr/sdtm/2-1/classes/Interventions</href><title>Interventions</title><type>Class</type></parentClass><parentProduct><href>/mdr/sdtm/2-1</href><title>Study Data Tabulation Model Version 2.1</title><type>Foundational Model</type></parentProduct><priorVersion><href>/mdr/sdtm/2-0/classes/Interventions/variables/--PRESP</href><title>Pre-Specified</title><type>SDTM Class Variable</type></priorVersion><qualifiesVariable><href>/mdr/sdtm/2-1/classes/Interventions/variables/--TRT</href><title>Name of Treatment or Product</title><type>SDTM Class Variable</type></qualifiesVariable><rootItem><href>/mdr/root/sdtm/classes/Interventions/variables/--PRESP</href><title>Version-agnostic anchor resource for SDTM variable Interventions.--PRESP</title><type>Root Data Element</type></rootItem><self><href>/mdr/sdtm/2-1/classes/Interventions/variables/--PRESP</href><title>Pre-Specified</title><type>SDTM Class Variable</type></self></_links><definition>An indication that the event or intervention was prospectively stated or detailed on the CRF.</definition><label>Pre-Specified</label><name>--PRESP</name><notes>Values should be "Y" or null.</notes><ordinal>7</ordinal><role>Variable Qualifier</role><simpleDatatype>Char</simpleDatatype><usageRestrictions>Not in nonclinical trials</usageRestrictions><variableCcode>C82510</variableCcode></classVariable><classVariable><_links><parentClass><href>/mdr/sdtm/2-1/classes/Interventions</href><title>Interventions</title><type>Class</type></parentClass><parentProduct><href>/mdr/sdtm/2-1</href><title>Study Data Tabulation Model Version 2.1</title><type>Foundational Model</type></parentProduct><priorVersion><href>/mdr/sdtm/2-0/classes/Interventions/variables/--OCCUR</href><title>Occurrence Indicator</title><type>SDTM Class Variable</type></priorVersion><rootItem><href>/mdr/root/sdtm/classes/Interventions/variables/--OCCUR</href><title>Version-agnostic anchor resource for SDTM variable Interventions.--OCCUR</title><type>Root Data Element</type></rootItem><self><href>/mdr/sdtm/2-1/classes/Interventions/variables/--OCCUR</href><title>Occurrence Indicator</title><type>SDTM Class Variable</type></self></_links><definition>An indication as to whether a prespecified event or intervention has occurred.</definition><label>Occurrence Indicator</label><name>--OCCUR</name><ordinal>8</ordinal><role>Record Qualifier</role><simpleDatatype>Char</simpleDatatype><variableCcode>C171000</variableCcode></classVariable><classVariable><_links><parentClass><href>/mdr/sdtm/2-1/classes/Interventions</href><title>Interventions</title><type>Class</type></parentClass><parentProduct><href>/mdr/sdtm/2-1</href><title>Study Data Tabulation Model Version 2.1</title><type>Foundational Model</type></parentProduct><priorVersion><href>/mdr/sdtm/2-0/classes/Interventions/variables/--REASOC</href><title>Reason for Occur Value</title><type>SDTM Class Variable</type></priorVersion><rootItem><href>/mdr/root/sdtm/classes/Interventions/variables/--REASOC</href><title>Version-agnostic anchor resource for SDTM variable Interventions.--REASOC</title><type>Root Data Element</type></rootItem><self><href>/mdr/sdtm/2-1/classes/Interventions/variables/--REASOC</href><title>Reason for Occur Value</title><type>SDTM Class Variable</type></self></_links><label>Reason for Occur Value</label><name>--REASOC</name><notes>--REASOC is the reason the intervention did or did not occur, according to the value in --OCCUR. This does not replace --INDC.</notes><ordinal>9</ordinal><role>Record Qualifier</role><simpleDatatype>Char</simpleDatatype></classVariable><classVariable><_links><parentClass><href>/mdr/sdtm/2-1/classes/Interventions</href><title>Interventions</title><type>Class</type></parentClass><parentProduct><href>/mdr/sdtm/2-1</href><title>Study Data Tabulation Model Version 2.1</title><type>Foundational Model</type></parentProduct><priorVersion><href>/mdr/sdtm/2-0/classes/Interventions/variables/--STAT</href><title>Completion Status</title><type>SDTM Class Variable</type></priorVersion><rootItem><href>/mdr/root/sdtm/classes/Interventions/variables/--STAT</href><title>Version-agnostic anchor resource for SDTM variable Interventions.--STAT</title><type>Root Data Element</type></rootItem><self><href>/mdr/sdtm/2-1/classes/Interventions/variables/--STAT</href><title>Completion Status</title><type>SDTM Class Variable</type></self></_links><label>Completion Status</label><name>--STAT</name><notes>Used to indicate when a question about the occurrence of a prespecified intervention was not answered. Should be null or have a value of "NOT DONE".</notes><ordinal>10</ordinal><role>Record Qualifier</role><simpleDatatype>Char</simpleDatatype></classVariable><classVariable><_links><parentClass><href>/mdr/sdtm/2-1/classes/Interventions</href><title>Interventions</title><type>Class</type></parentClass><parentProduct><href>/mdr/sdtm/2-1</href><title>Study Data Tabulation Model Version 2.1</title><type>Foundational Model</type></parentProduct><priorVersion><href>/mdr/sdtm/2-0/classes/Interventions/variables/--REASND</href><title>Reason Not Done</title><type>SDTM Class Variable</type></priorVersion><rootItem><href>/mdr/root/sdtm/classes/Interventions/variables/--REASND</href><title>Version-agnostic anchor resource for SDTM variable Interventions.--REASND</title><type>Root Data Element</type></rootItem><self><href>/mdr/sdtm/2-1/classes/Interventions/variables/--REASND</href><title>Reason Not Done</title><type>SDTM Class Variable</type></self></_links><definition>The explanation for why requested information was not available.</definition><label>Reason Not Done</label><name>--REASND</name><notes>Used in conjunction with --STAT when value is "NOT DONE".</notes><ordinal>11</ordinal><role>Record Qualifier</role><simpleDatatype>Char</simpleDatatype><variableCcode>C82556</variableCcode></classVariable><classVariable><_links><parentClass><href>/mdr/sdtm/2-1/classes/Interventions</href><title>Interventions</title><type>Class</type></parentClass><parentProduct><href>/mdr/sdtm/2-1</href><title>Study Data Tabulation Model Version 2.1</title><type>Foundational Model</type></parentProduct><priorVersion><href>/mdr/sdtm/2-0/classes/Interventions/variables/--CNTMOD</href><title>Contact Mode</title><type>SDTM Class Variable</type></priorVersion><rootItem><href>/mdr/root/sdtm/classes/Interventions/variables/--CNTMOD</href><title>Version-agnostic anchor resource for SDTM variable Interventions.--CNTMOD</title><type>Root Data Element</type></rootItem><self><href>/mdr/sdtm/2-1/classes/Interventions/variables/--CNTMOD</href><title>Contact Mode</title><type>SDTM Class Variable</type></self></_links><label>Contact Mode</label><name>--CNTMOD</name><notes>The way in which the event, visit, or contact was conducted.</notes><ordinal>12</ordinal><role>Record Qualifier</role><simpleDatatype>Char</simpleDatatype></classVariable><classVariable><_links><parentClass><href>/mdr/sdtm/2-1/classes/Interventions</href><title>Interventions</title><type>Class</type></parentClass><parentProduct><href>/mdr/sdtm/2-1</href><title>Study Data Tabulation Model Version 2.1</title><type>Foundational Model</type></parentProduct><priorVersion><href>/mdr/sdtm/2-0/classes/Interventions/variables/--EPCHGI</href><title>Epi/Pandemic Related Change Indicator</title><type>SDTM Class Variable</type></priorVersion><rootItem><href>/mdr/root/sdtm/classes/Interventions/variables/--EPCHGI</href><title>Version-agnostic anchor resource for SDTM variable Interventions.--EPCHGI</title><type>Root Data Element</type></rootItem><self><href>/mdr/sdtm/2-1/classes/Interventions/variables/--EPCHGI</href><title>Epi/Pandemic Related Change Indicator</title><type>SDTM Class Variable</type></self></_links><label>Epi/Pandemic Related Change Indicator</label><name>--EPCHGI</name><notes>Indicates whether the intervention was changed due to an epidemic or pandemic.</notes><ordinal>13</ordinal><role>Record Qualifier</role><simpleDatatype>Char</simpleDatatype></classVariable><classVariable><_links><parentClass><href>/mdr/sdtm/2-1/classes/Interventions</href><title>Interventions</title><type>Class</type></parentClass><parentProduct><href>/mdr/sdtm/2-1</href><title>Study Data Tabulation Model Version 2.1</title><type>Foundational Model</type></parentProduct><priorVersion><href>/mdr/sdtm/2-0/classes/Interventions/variables/--INDC</href><title>Indication</title><type>SDTM Class Variable</type></priorVersion><rootItem><href>/mdr/root/sdtm/classes/Interventions/variables/--INDC</href><title>Version-agnostic anchor resource for SDTM variable Interventions.--INDC</title><type>Root Data Element</type></rootItem><self><href>/mdr/sdtm/2-1/classes/Interventions/variables/--INDC</href><title>Indication</title><type>SDTM Class Variable</type></self></_links><definition>The sign, symptom, or condition that is the basis for initiation of a treatment.</definition><label>Indication</label><name>--INDC</name><ordinal>14</ordinal><role>Record Qualifier</role><simpleDatatype>Char</simpleDatatype><variableCcode>C41184</variableCcode></classVariable><classVariable><_links><parentClass><href>/mdr/sdtm/2-1/classes/Interventions</href><title>Interventions</title><type>Class</type></parentClass><parentProduct><href>/mdr/sdtm/2-1</href><title>Study Data Tabulation Model Version 2.1</title><type>Foundational Model</type></parentProduct><priorVersion><href>/mdr/sdtm/2-0/classes/Interventions/variables/--CLAS</href><title>Class</title><type>SDTM Class Variable</type></priorVersion><qualifiesVariable><href>/mdr/sdtm/2-1/classes/Interventions/variables/--TRT</href><title>Name of Treatment or Product</title><type>SDTM Class Variable</type></qualifiesVariable><rootItem><href>/mdr/root/sdtm/classes/Interventions/variables/--CLAS</href><title>Version-agnostic anchor resource for SDTM variable Interventions.--CLAS</title><type>Root Data Element</type></rootItem><self><href>/mdr/sdtm/2-1/classes/Interventions/variables/--CLAS</href><title>Class</title><type>SDTM Class Variable</type></self></_links><definition>A standardized or dictionary-derived name for a grouping of drugs, procedures, or therapies.</definition><label>Class</label><name>--CLAS</name><ordinal>15</ordinal><role>Variable Qualifier</role><simpleDatatype>Char</simpleDatatype><variableCcode>C170987</variableCcode></classVariable><classVariable><_links><parentClass><href>/mdr/sdtm/2-1/classes/Interventions</href><title>Interventions</title><type>Class</type></parentClass><parentProduct><href>/mdr/sdtm/2-1</href><title>Study Data Tabulation Model Version 2.1</title><type>Foundational Model</type></parentProduct><priorVersion><href>/mdr/sdtm/2-0/classes/Interventions/variables/--CLASCD</href><title>Class Code</title><type>SDTM Class Variable</type></priorVersion><qualifiesVariable><href>/mdr/sdtm/2-1/classes/Interventions/variables/--TRT</href><title>Name of Treatment or Product</title><type>SDTM Class Variable</type></qualifiesVariable><rootItem><href>/mdr/root/sdtm/classes/Interventions/variables/--CLASCD</href><title>Version-agnostic anchor resource for SDTM variable Interventions.--CLASCD</title><type>Root Data Element</type></rootItem><self><href>/mdr/sdtm/2-1/classes/Interventions/variables/--CLASCD</href><title>Class Code</title><type>SDTM Class Variable</type></self></_links><definition>A standardized or dictionary-derived short sequence of characters used to represent a grouping of drugs, procedures, or therapies.</definition><label>Class Code</label><name>--CLASCD</name><notes>Used to represent code for --CLAS.</notes><ordinal>16</ordinal><role>Variable Qualifier</role><simpleDatatype>Char</simpleDatatype><variableCcode>C170988</variableCcode></classVariable><classVariable><_links><parentClass><href>/mdr/sdtm/2-1/classes/Interventions</href><title>Interventions</title><type>Class</type></parentClass><parentProduct><href>/mdr/sdtm/2-1</href><title>Study Data Tabulation Model Version 2.1</title><type>Foundational Model</type></parentProduct><priorVersion><href>/mdr/sdtm/2-0/classes/Interventions/variables/--DOSE</href><title>Dose</title><type>SDTM Class Variable</type></priorVersion><rootItem><href>/mdr/root/sdtm/classes/Interventions/variables/--DOSE</href><title>Version-agnostic anchor resource for SDTM variable Interventions.--DOSE</title><type>Root Data Element</type></rootItem><self><href>/mdr/sdtm/2-1/classes/Interventions/variables/--DOSE</href><title>Dose</title><type>SDTM Class Variable</type></self></_links><definition>The quantity of an agent (e.g., drug, substance, radiation) taken or absorbed at a single administration.</definition><label>Dose</label><name>--DOSE</name><notes>Not populated when --DOSTXT is populated.</notes><ordinal>17</ordinal><role>Record Qualifier</role><simpleDatatype>Num</simpleDatatype><variableCcode>C25488</variableCcode></classVariable><classVariable><_links><parentClass><href>/mdr/sdtm/2-1/classes/Interventions</href><title>Interventions</title><type>Class</type></parentClass><parentProduct><href>/mdr/sdtm/2-1</href><title>Study Data Tabulation Model Version 2.1</title><type>Foundational Model</type></parentProduct><priorVersion><href>/mdr/sdtm/2-0/classes/Interventions/variables/--DOSTXT</href><title>Dose Description</title><type>SDTM Class Variable</type></priorVersion><rootItem><href>/mdr/root/sdtm/classes/Interventions/variables/--DOSTXT</href><title>Version-agnostic anchor resource for SDTM variable Interventions.--DOSTXT</title><type>Root Data Element</type></rootItem><self><href>/mdr/sdtm/2-1/classes/Interventions/variables/--DOSTXT</href><title>Dose Description</title><type>SDTM Class Variable</type></self></_links><definition>A textual description of the quantity of an agent (e.g., drug, substance, radiation) taken or absorbed at a single administration.</definition><examples>200-400</examples><label>Dose Description</label><name>--DOSTXT</name><notes>Not populated when --DOSE is populated.</notes><ordinal>18</ordinal><role>Record Qualifier</role><simpleDatatype>Char</simpleDatatype><variableCcode>C70961</variableCcode></classVariable><classVariable><_links><parentClass><href>/mdr/sdtm/2-1/classes/Interventions</href><title>Interventions</title><type>Class</type></parentClass><parentProduct><href>/mdr/sdtm/2-1</href><title>Study Data Tabulation Model Version 2.1</title><type>Foundational Model</type></parentProduct><priorVersion><href>/mdr/sdtm/2-0/classes/Interventions/variables/--DOSU</href><title>Dose Units</title><type>SDTM Class Variable</type></priorVersion><qualifiesVariable><href>/mdr/sdtm/2-1/classes/Interventions/variables/--DOSE</href><title>Dose</title><type>SDTM Class Variable</type></qualifiesVariable><qualifiesVariable><href>/mdr/sdtm/2-1/classes/Interventions/variables/--DOSTXT</href><title>Dose Description</title><type>SDTM Class Variable</type></qualifiesVariable><qualifiesVariable><href>/mdr/sdtm/2-1/classes/Interventions/variables/--DOSTOT</href><title>Total Daily Dose</title><type>SDTM Class Variable</type></qualifiesVariable><rootItem><href>/mdr/root/sdtm/classes/Interventions/variables/--DOSU</href><title>Version-agnostic anchor resource for SDTM variable Interventions.--DOSU</title><type>Root Data Element</type></rootItem><self><href>/mdr/sdtm/2-1/classes/Interventions/variables/--DOSU</href><title>Dose Units</title><type>SDTM Class Variable</type></self></_links><definition>The unit of measure for the administered agent (e.g., drug, substance, radiation), using standardized values.</definition><examples>"ng", "mg", "mg/kg"</examples><label>Dose Units</label><name>--DOSU</name><notes>Units for --DOSE, --DOSTOT, or --DOSTXT.</notes><ordinal>19</ordinal><role>Variable Qualifier</role><simpleDatatype>Char</simpleDatatype><variableCcode>C73558</variableCcode></classVariable><classVariable><_links><parentClass><href>/mdr/sdtm/2-1/classes/Interventions</href><title>Interventions</title><type>Class</type></parentClass><parentProduct><href>/mdr/sdtm/2-1</href><title>Study Data Tabulation Model Version 2.1</title><type>Foundational Model</type></parentProduct><priorVersion><href>/mdr/sdtm/2-0/classes/Interventions/variables/--TDOSD</href><title>Toxic/Physiologic Dose Descr</title><type>SDTM Class Variable</type></priorVersion><rootItem><href>/mdr/root/sdtm/classes/Interventions/variables/--TDOSD</href><title>Version-agnostic anchor resource for SDTM variable Interventions.--TDOSD</title><type>Root Data Element</type></rootItem><self><href>/mdr/sdtm/2-1/classes/Interventions/variables/--TDOSD</href><title>Toxic/Physiologic Dose Descr</title><type>SDTM Class Variable</type></self></_links><examples>"LD50", "ED90"</examples><label>Toxic/Physiologic Dose Descr</label><name>--TDOSD</name><notes>A description of a statistically derived estimate of a dose with a certain toxicological or physiological effect in a population, based on data from a dose-response study.</notes><ordinal>20</ordinal><role>Record Qualifier</role><simpleDatatype>Char</simpleDatatype></classVariable><classVariable><_links><parentClass><href>/mdr/sdtm/2-1/classes/Interventions</href><title>Interventions</title><type>Class</type></parentClass><parentProduct><href>/mdr/sdtm/2-1</href><title>Study Data Tabulation Model Version 2.1</title><type>Foundational Model</type></parentProduct><priorVersion><href>/mdr/sdtm/2-0/classes/Interventions/variables/--FTDOSD</href><title>Factor for Toxic/Physiologic Dose Descr</title><type>SDTM Class Variable</type></priorVersion><qualifiesVariable><href>/mdr/sdtm/2-1/classes/Interventions/variables/--TDOSD</href><title>Toxic/Physiologic Dose Descr</title><type>SDTM Class Variable</type></qualifiesVariable><rootItem><href>/mdr/root/sdtm/classes/Interventions/variables/--FTDOSD</href><title>Version-agnostic anchor resource for SDTM variable Interventions.--FTDOSD</title><type>Root Data Element</type></rootItem><self><href>/mdr/sdtm/2-1/classes/Interventions/variables/--FTDOSD</href><title>Factor for Toxic/Physiologic Dose Descr</title><type>SDTM Class Variable</type></self></_links><examples>If --TDOSD="LD50" and --FTDOSD="5", then the value represented by --DOSE and --DOSU is 5 times the LD50.</examples><label>Factor for Toxic/Physiologic Dose Descr</label><name>--FTDOSD</name><notes>The quantity given for the multiplier of --TDOSD.</notes><ordinal>21</ordinal><role>Variable Qualifier</role><simpleDatatype>Num</simpleDatatype></classVariable><classVariable><_links><parentClass><href>/mdr/sdtm/2-1/classes/Interventions</href><title>Interventions</title><type>Class</type></parentClass><parentProduct><href>/mdr/sdtm/2-1</href><title>Study Data Tabulation Model Version 2.1</title><type>Foundational Model</type></parentProduct><priorVersion><href>/mdr/sdtm/2-0/classes/Interventions/variables/--DOSFRM</href><title>Dose Form</title><type>SDTM Class Variable</type></priorVersion><qualifiesVariable><href>/mdr/sdtm/2-1/classes/Interventions/variables/--TRT</href><title>Name of Treatment or Product</title><type>SDTM Class Variable</type></qualifiesVariable><rootItem><href>/mdr/root/sdtm/classes/Interventions/variables/--DOSFRM</href><title>Version-agnostic anchor resource for SDTM variable Interventions.--DOSFRM</title><type>Root Data Element</type></rootItem><self><href>/mdr/sdtm/2-1/classes/Interventions/variables/--DOSFRM</href><title>Dose Form</title><type>SDTM Class Variable</type></self></_links><definition>Physical characteristics of a product, (e.g., tablet, capsule, solution) that contains a substance, generally (but not necessarily) in association with 1 or more other ingredients.</definition><examples>"TABLET", "CAPSULE"</examples><label>Dose Form</label><name>--DOSFRM</name><ordinal>22</ordinal><role>Variable Qualifier</role><simpleDatatype>Char</simpleDatatype><variableCcode>C42636</variableCcode></classVariable><classVariable><_links><parentClass><href>/mdr/sdtm/2-1/classes/Interventions</href><title>Interventions</title><type>Class</type></parentClass><parentProduct><href>/mdr/sdtm/2-1</href><title>Study Data Tabulation Model Version 2.1</title><type>Foundational Model</type></parentProduct><priorVersion><href>/mdr/sdtm/2-0/classes/Interventions/variables/--DOSFRQ</href><title>Dosing Frequency per Interval</title><type>SDTM Class Variable</type></priorVersion><rootItem><href>/mdr/root/sdtm/classes/Interventions/variables/--DOSFRQ</href><title>Version-agnostic anchor resource for SDTM variable Interventions.--DOSFRQ</title><type>Root Data Element</type></rootItem><self><href>/mdr/sdtm/2-1/classes/Interventions/variables/--DOSFRQ</href><title>Dosing Frequency per Interval</title><type>SDTM Class Variable</type></self></_links><definition>The number of times that an agent (e.g., drug, product, substance, radiation) is administered per unit of time.</definition><examples>"Q2H", "QD", "PRN"</examples><label>Dosing Frequency per Interval</label><name>--DOSFRQ</name><ordinal>23</ordinal><role>Record Qualifier</role><simpleDatatype>Char</simpleDatatype><variableCcode>C15682</variableCcode></classVariable><classVariable><_links><parentClass><href>/mdr/sdtm/2-1/classes/Interventions</href><title>Interventions</title><type>Class</type></parentClass><parentProduct><href>/mdr/sdtm/2-1</href><title>Study Data Tabulation Model Version 2.1</title><type>Foundational Model</type></parentProduct><priorVersion><href>/mdr/sdtm/2-0/classes/Interventions/variables/--DOSTOT</href><title>Total Daily Dose</title><type>SDTM Class Variable</type></priorVersion><rootItem><href>/mdr/root/sdtm/classes/Interventions/variables/--DOSTOT</href><title>Version-agnostic anchor resource for SDTM variable Interventions.--DOSTOT</title><type>Root Data Element</type></rootItem><self><href>/mdr/sdtm/2-1/classes/Interventions/variables/--DOSTOT</href><title>Total Daily Dose</title><type>SDTM Class Variable</type></self></_links><definition>The quantity of an agent (e.g., drug, product, substance, radiation) taken or absorbed on a single day.</definition><label>Total Daily Dose</label><name>--DOSTOT</name><notes>Uses the units in --DOSU.</notes><ordinal>24</ordinal><role>Record Qualifier</role><simpleDatatype>Num</simpleDatatype><variableCcode>C70888</variableCcode></classVariable><classVariable><_links><parentClass><href>/mdr/sdtm/2-1/classes/Interventions</href><title>Interventions</title><type>Class</type></parentClass><parentProduct><href>/mdr/sdtm/2-1</href><title>Study Data Tabulation Model Version 2.1</title><type>Foundational Model</type></parentProduct><priorVersion><href>/mdr/sdtm/2-0/classes/Interventions/variables/--DOSRGM</href><title>Intended Dose Regimen</title><type>SDTM Class Variable</type></priorVersion><rootItem><href>/mdr/root/sdtm/classes/Interventions/variables/--DOSRGM</href><title>Version-agnostic anchor resource for SDTM variable Interventions.--DOSRGM</title><type>Root Data Element</type></rootItem><self><href>/mdr/sdtm/2-1/classes/Interventions/variables/--DOSRGM</href><title>Intended Dose Regimen</title><type>SDTM Class Variable</type></self></_links><definition>The planned schedule for the administration of an agent (e.g., drug, product, substance, radiation).</definition><examples>"TWO WEEKS ON, TWO WEEKS OFF"</examples><label>Intended Dose Regimen</label><name>--DOSRGM</name><ordinal>25</ordinal><role>Record Qualifier</role><simpleDatatype>Char</simpleDatatype><variableCcode>C71137</variableCcode></classVariable><classVariable><_links><parentClass><href>/mdr/sdtm/2-1/classes/Interventions</href><title>Interventions</title><type>Class</type></parentClass><parentProduct><href>/mdr/sdtm/2-1</href><title>Study Data Tabulation Model Version 2.1</title><type>Foundational Model</type></parentProduct><priorVersion><href>/mdr/sdtm/2-0/classes/Interventions/variables/--ROUTE</href><title>Route of Administration</title><type>SDTM Class Variable</type></priorVersion><rootItem><href>/mdr/root/sdtm/classes/Interventions/variables/--ROUTE</href><title>Version-agnostic anchor resource for SDTM variable Interventions.--ROUTE</title><type>Root Data Element</type></rootItem><self><href>/mdr/sdtm/2-1/classes/Interventions/variables/--ROUTE</href><title>Route of Administration</title><type>SDTM Class Variable</type></self></_links><definition>Designation of the part of the body through which or into which, or the way in which, a substance is introduced.</definition><examples>"ORAL", "INTRAVENOUS"</examples><label>Route of Administration</label><name>--ROUTE</name><ordinal>26</ordinal><role>Record Qualifier</role><simpleDatatype>Char</simpleDatatype><variableCcode>C38114</variableCcode></classVariable><classVariable><_links><parentClass><href>/mdr/sdtm/2-1/classes/Interventions</href><title>Interventions</title><type>Class</type></parentClass><parentProduct><href>/mdr/sdtm/2-1</href><title>Study Data Tabulation Model Version 2.1</title><type>Foundational Model</type></parentProduct><priorVersion><href>/mdr/sdtm/2-0/classes/Interventions/variables/--LOT</href><title>Lot Number</title><type>SDTM Class Variable</type></priorVersion><rootItem><href>/mdr/root/sdtm/classes/Interventions/variables/--LOT</href><title>Version-agnostic anchor resource for SDTM variable Interventions.--LOT</title><type>Root Data Element</type></rootItem><self><href>/mdr/sdtm/2-1/classes/Interventions/variables/--LOT</href><title>Lot Number</title><type>SDTM Class Variable</type></self></_links><definition>An identifier assigned by the manufacturer or distributor to a specific quantity of manufactured material or product.</definition><label>Lot Number</label><name>--LOT</name><notes>Although the identifier for a lot is generally called a lot number, it may contain characters other than digits (e.g., letters).</notes><ordinal>27</ordinal><role>Record Qualifier</role><simpleDatatype>Char</simpleDatatype><variableCcode>C70848</variableCcode></classVariable><classVariable><_links><parentClass><href>/mdr/sdtm/2-1/classes/Interventions</href><title>Interventions</title><type>Class</type></parentClass><parentProduct><href>/mdr/sdtm/2-1</href><title>Study Data Tabulation Model Version 2.1</title><type>Foundational Model</type></parentProduct><priorVersion><href>/mdr/sdtm/2-0/classes/Interventions/variables/--LOC</href><title>Location of Administration</title><type>SDTM Class Variable</type></priorVersion><rootItem><href>/mdr/root/sdtm/classes/Interventions/variables/--LOC</href><title>Version-agnostic anchor resource for SDTM variable Interventions.--LOC</title><type>Root Data Element</type></rootItem><self><href>/mdr/sdtm/2-1/classes/Interventions/variables/--LOC</href><title>Location of Administration</title><type>SDTM Class Variable</type></self></_links><examples>ARM for an injection</examples><label>Location of Administration</label><name>--LOC</name><notes>Anatomical location of an intervention, such as an injection site.</notes><ordinal>28</ordinal><role>Record Qualifier</role><simpleDatatype>Char</simpleDatatype></classVariable><classVariable><_links><parentClass><href>/mdr/sdtm/2-1/classes/Interventions</href><title>Interventions</title><type>Class</type></parentClass><parentProduct><href>/mdr/sdtm/2-1</href><title>Study Data Tabulation Model Version 2.1</title><type>Foundational Model</type></parentProduct><priorVersion><href>/mdr/sdtm/2-0/classes/Interventions/variables/--METHOD</href><title>Method of Administration</title><type>SDTM Class Variable</type></priorVersion><rootItem><href>/mdr/root/sdtm/classes/Interventions/variables/--METHOD</href><title>Version-agnostic anchor resource for SDTM variable Interventions.--METHOD</title><type>Root Data Element</type></rootItem><self><href>/mdr/sdtm/2-1/classes/Interventions/variables/--METHOD</href><title>Method of Administration</title><type>SDTM Class Variable</type></self></_links><definition>Method of administration of the treatment.</definition><examples>INFUSION when ROUTE is "INTRAVENOUS"</examples><label>Method of Administration</label><name>--METHOD</name><ordinal>29</ordinal><role>Record Qualifier</role><simpleDatatype>Char</simpleDatatype><usageRestrictions>Not in human clinical trials; EX domain only</usageRestrictions></classVariable><classVariable><_links><parentClass><href>/mdr/sdtm/2-1/classes/Interventions</href><title>Interventions</title><type>Class</type></parentClass><parentProduct><href>/mdr/sdtm/2-1</href><title>Study Data Tabulation Model Version 2.1</title><type>Foundational Model</type></parentProduct><priorVersion><href>/mdr/sdtm/2-0/classes/Interventions/variables/--LAT</href><title>Laterality</title><type>SDTM Class Variable</type></priorVersion><qualifiesVariable><href>/mdr/sdtm/2-1/classes/Interventions/variables/--LOC</href><title>Location of Administration</title><type>SDTM Class Variable</type></qualifiesVariable><rootItem><href>/mdr/root/sdtm/classes/Interventions/variables/--LAT</href><title>Version-agnostic anchor resource for SDTM variable Interventions.--LAT</title><type>Root Data Element</type></rootItem><self><href>/mdr/sdtm/2-1/classes/Interventions/variables/--LAT</href><title>Laterality</title><type>SDTM Class Variable</type></self></_links><examples>"RIGHT", "LEFT", "BILATERAL"</examples><label>Laterality</label><name>--LAT</name><notes>Qualifier for anatomical location further detailing laterality of intervention administration.</notes><ordinal>30</ordinal><role>Variable Qualifier</role><simpleDatatype>Char</simpleDatatype></classVariable><classVariable><_links><parentClass><href>/mdr/sdtm/2-1/classes/Interventions</href><title>Interventions</title><type>Class</type></parentClass><parentProduct><href>/mdr/sdtm/2-1</href><title>Study Data Tabulation Model Version 2.1</title><type>Foundational Model</type></parentProduct><priorVersion><href>/mdr/sdtm/2-0/classes/Interventions/variables/--DIR</href><title>Directionality</title><type>SDTM Class Variable</type></priorVersion><qualifiesVariable><href>/mdr/sdtm/2-1/classes/Interventions/variables/--LOC</href><title>Location of Administration</title><type>SDTM Class Variable</type></qualifiesVariable><rootItem><href>/mdr/root/sdtm/classes/Interventions/variables/--DIR</href><title>Version-agnostic anchor resource for SDTM variable Interventions.--DIR</title><type>Root Data Element</type></rootItem><self><href>/mdr/sdtm/2-1/classes/Interventions/variables/--DIR</href><title>Directionality</title><type>SDTM Class Variable</type></self></_links><examples>"ANTERIOR", "LOWER", "PROXIMAL"</examples><label>Directionality</label><name>--DIR</name><notes>Qualifier for anatomical location further detailing directionality of intervention administration.</notes><ordinal>31</ordinal><role>Variable Qualifier</role><simpleDatatype>Char</simpleDatatype></classVariable><classVariable><_links><parentClass><href>/mdr/sdtm/2-1/classes/Interventions</href><title>Interventions</title><type>Class</type></parentClass><parentProduct><href>/mdr/sdtm/2-1</href><title>Study Data Tabulation Model Version 2.1</title><type>Foundational Model</type></parentProduct><priorVersion><href>/mdr/sdtm/2-0/classes/Interventions/variables/--PORTOT</href><title>Portion or Totality</title><type>SDTM Class Variable</type></priorVersion><qualifiesVariable><href>/mdr/sdtm/2-1/classes/Interventions/variables/--LOC</href><title>Location of Administration</title><type>SDTM Class Variable</type></qualifiesVariable><rootItem><href>/mdr/root/sdtm/classes/Interventions/variables/--PORTOT</href><title>Version-agnostic anchor resource for SDTM variable Interventions.--PORTOT</title><type>Root Data Element</type></rootItem><self><href>/mdr/sdtm/2-1/classes/Interventions/variables/--PORTOT</href><title>Portion or Totality</title><type>SDTM Class Variable</type></self></_links><examples>"ENTIRE", "SINGLE", "SEGMENT", "MANY"</examples><label>Portion or Totality</label><name>--PORTOT</name><notes>Qualifier for anatomical location further detailing the distribution, which means arrangement of or apportioning of the intervention administration.</notes><ordinal>32</ordinal><role>Variable Qualifier</role><simpleDatatype>Char</simpleDatatype></classVariable><classVariable><_links><parentClass><href>/mdr/sdtm/2-1/classes/Interventions</href><title>Interventions</title><type>Class</type></parentClass><parentProduct><href>/mdr/sdtm/2-1</href><title>Study Data Tabulation Model Version 2.1</title><type>Foundational Model</type></parentProduct><priorVersion><href>/mdr/sdtm/2-0/classes/Interventions/variables/--FAST</href><title>Fasting Status</title><type>SDTM Class Variable</type></priorVersion><rootItem><href>/mdr/root/sdtm/classes/Interventions/variables/--FAST</href><title>Version-agnostic anchor resource for SDTM variable Interventions.--FAST</title><type>Root Data Element</type></rootItem><self><href>/mdr/sdtm/2-1/classes/Interventions/variables/--FAST</href><title>Fasting Status</title><type>SDTM Class Variable</type></self></_links><definition>An indication as to whether a subject has abstained from food and liquid for a prescribed amount of time.</definition><label>Fasting Status</label><name>--FAST</name><notes>Valid values include "Y", "N", "U", or null if not relevant.</notes><ordinal>33</ordinal><role>Record Qualifier</role><simpleDatatype>Char</simpleDatatype><variableCcode>C93566</variableCcode></classVariable><classVariable><_links><parentClass><href>/mdr/sdtm/2-1/classes/Interventions</href><title>Interventions</title><type>Class</type></parentClass><parentProduct><href>/mdr/sdtm/2-1</href><title>Study Data Tabulation Model Version 2.1</title><type>Foundational Model</type></parentProduct><priorVersion><href>/mdr/sdtm/2-0/classes/Interventions/variables/--PSTRG</href><title>Pharmaceutical Strength</title><type>SDTM Class Variable</type></priorVersion><rootItem><href>/mdr/root/sdtm/classes/Interventions/variables/--PSTRG</href><title>Version-agnostic anchor resource for SDTM variable Interventions.--PSTRG</title><type>Root Data Element</type></rootItem><self><href>/mdr/sdtm/2-1/classes/Interventions/variables/--PSTRG</href><title>Pharmaceutical Strength</title><type>SDTM Class Variable</type></self></_links><definition>The amount of active ingredient per unit of pharmaceutical dosage form.</definition><examples>"50", "300"</examples><label>Pharmaceutical Strength</label><name>--PSTRG</name><ordinal>34</ordinal><role>Record Qualifier</role><simpleDatatype>Num</simpleDatatype><variableCcode>C53294</variableCcode></classVariable><classVariable><_links><parentClass><href>/mdr/sdtm/2-1/classes/Interventions</href><title>Interventions</title><type>Class</type></parentClass><parentProduct><href>/mdr/sdtm/2-1</href><title>Study Data Tabulation Model Version 2.1</title><type>Foundational Model</type></parentProduct><priorVersion><href>/mdr/sdtm/2-0/classes/Interventions/variables/--PSTRGU</href><title>Pharmaceutical Strength Units</title><type>SDTM Class Variable</type></priorVersion><qualifiesVariable><href>/mdr/sdtm/2-1/classes/Interventions/variables/--PSTRG</href><title>Pharmaceutical Strength</title><type>SDTM Class Variable</type></qualifiesVariable><rootItem><href>/mdr/root/sdtm/classes/Interventions/variables/--PSTRGU</href><title>Version-agnostic anchor resource for SDTM variable Interventions.--PSTRGU</title><type>Root Data Element</type></rootItem><self><href>/mdr/sdtm/2-1/classes/Interventions/variables/--PSTRGU</href><title>Pharmaceutical Strength Units</title><type>SDTM Class Variable</type></self></_links><definition>The unit of measure for the amount of active ingredient per unit of pharmaceutical dosage form, using standardized values.</definition><examples>"mg/TABLET", "mg/mL"</examples><label>Pharmaceutical Strength Units</label><name>--PSTRGU</name><notes>Unit for --PSTRG.</notes><ordinal>35</ordinal><role>Variable Qualifier</role><simpleDatatype>Char</simpleDatatype><variableCcode>C117055</variableCcode></classVariable><classVariable><_links><parentClass><href>/mdr/sdtm/2-1/classes/Interventions</href><title>Interventions</title><type>Class</type></parentClass><parentProduct><href>/mdr/sdtm/2-1</href><title>Study Data Tabulation Model Version 2.1</title><type>Foundational Model</type></parentProduct><priorVersion><href>/mdr/sdtm/2-0/classes/Interventions/variables/--TRTV</href><title>Treatment Vehicle</title><type>SDTM Class Variable</type></priorVersion><rootItem><href>/mdr/root/sdtm/classes/Interventions/variables/--TRTV</href><title>Version-agnostic anchor resource for SDTM variable Interventions.--TRTV</title><type>Root Data Element</type></rootItem><self><href>/mdr/sdtm/2-1/classes/Interventions/variables/--TRTV</href><title>Treatment Vehicle</title><type>SDTM Class Variable</type></self></_links><definition>A carrier or inert medium in which a medicinally active agent is administered.</definition><examples>SALINE</examples><label>Treatment Vehicle</label><name>--TRTV</name><ordinal>36</ordinal><role>Record Qualifier</role><simpleDatatype>Char</simpleDatatype><variableCcode>C927</variableCcode></classVariable><classVariable><_links><parentClass><href>/mdr/sdtm/2-1/classes/Interventions</href><title>Interventions</title><type>Class</type></parentClass><parentProduct><href>/mdr/sdtm/2-1</href><title>Study Data Tabulation Model Version 2.1</title><type>Foundational Model</type></parentProduct><priorVersion><href>/mdr/sdtm/2-0/classes/Interventions/variables/--VAMT</href><title>Treatment Vehicle Amount</title><type>SDTM Class Variable</type></priorVersion><rootItem><href>/mdr/root/sdtm/classes/Interventions/variables/--VAMT</href><title>Version-agnostic anchor resource for SDTM variable Interventions.--VAMT</title><type>Root Data Element</type></rootItem><self><href>/mdr/sdtm/2-1/classes/Interventions/variables/--VAMT</href><title>Treatment Vehicle Amount</title><type>SDTM Class Variable</type></self></_links><definition>Amount of the prepared product (treatment plus vehicle) administered.</definition><label>Treatment Vehicle Amount</label><name>--VAMT</name><notes>Note: Should not be diluent amount alone.</notes><ordinal>37</ordinal><role>Record Qualifier</role><simpleDatatype>Num</simpleDatatype><variableCcode>C82553</variableCcode></classVariable><classVariable><_links><parentClass><href>/mdr/sdtm/2-1/classes/Interventions</href><title>Interventions</title><type>Class</type></parentClass><parentProduct><href>/mdr/sdtm/2-1</href><title>Study Data Tabulation Model Version 2.1</title><type>Foundational Model</type></parentProduct><priorVersion><href>/mdr/sdtm/2-0/classes/Interventions/variables/--VAMTU</href><title>Treatment Vehicle Amount Units</title><type>SDTM Class Variable</type></priorVersion><qualifiesVariable><href>/mdr/sdtm/2-1/classes/Interventions/variables/--VAMT</href><title>Treatment Vehicle Amount</title><type>SDTM Class Variable</type></qualifiesVariable><rootItem><href>/mdr/root/sdtm/classes/Interventions/variables/--VAMTU</href><title>Version-agnostic anchor resource for SDTM variable Interventions.--VAMTU</title><type>Root Data Element</type></rootItem><self><href>/mdr/sdtm/2-1/classes/Interventions/variables/--VAMTU</href><title>Treatment Vehicle Amount Units</title><type>SDTM Class Variable</type></self></_links><definition>The unit of measure for the prepared product (treatment plus vehicle) using standardized values.</definition><examples>"mL", "mg"</examples><label>Treatment Vehicle Amount Units</label><name>--VAMTU</name><ordinal>38</ordinal><role>Variable Qualifier</role><simpleDatatype>Char</simpleDatatype><variableCcode>C82583</variableCcode></classVariable><classVariable><_links><parentClass><href>/mdr/sdtm/2-1/classes/Interventions</href><title>Interventions</title><type>Class</type></parentClass><parentProduct><href>/mdr/sdtm/2-1</href><title>Study Data Tabulation Model Version 2.1</title><type>Foundational Model</type></parentProduct><priorVersion><href>/mdr/sdtm/2-0/classes/Interventions/variables/--ADJ</href><title>Reason for Dose Adjustment</title><type>SDTM Class Variable</type></priorVersion><rootItem><href>/mdr/root/sdtm/classes/Interventions/variables/--ADJ</href><title>Version-agnostic anchor resource for SDTM variable Interventions.--ADJ</title><type>Root Data Element</type></rootItem><self><href>/mdr/sdtm/2-1/classes/Interventions/variables/--ADJ</href><title>Reason for Dose Adjustment</title><type>SDTM Class Variable</type></self></_links><definition>The explanation given for why a dose was changed as compared to a previous dose.</definition><examples>"ADVERSE EVENT", "INSUFFICIENT RESPONSE", "NON-MEDICAL REASON"</examples><label>Reason for Dose Adjustment</label><name>--ADJ</name><ordinal>39</ordinal><role>Record Qualifier</role><simpleDatatype>Char</simpleDatatype><variableCcode>C82555</variableCcode></classVariable><classVariable><_links><parentClass><href>/mdr/sdtm/2-1/classes/Interventions</href><title>Interventions</title><type>Class</type></parentClass><parentProduct><href>/mdr/sdtm/2-1</href><title>Study Data Tabulation Model Version 2.1</title><type>Foundational Model</type></parentProduct><priorVersion><href>/mdr/sdtm/2-0/classes/Interventions/variables/--RSDISC</href><title>Reason for Treatment Discontinuation</title><type>SDTM Class Variable</type></priorVersion><rootItem><href>/mdr/root/sdtm/classes/Interventions/variables/--RSDISC</href><title>Version-agnostic anchor resource for SDTM variable Interventions.--RSDISC</title><type>Root Data Element</type></rootItem><self><href>/mdr/sdtm/2-1/classes/Interventions/variables/--RSDISC</href><title>Reason Treatment or Product Discontinued</title><type>SDTM Class Variable</type></self></_links><label>Reason Treatment or Product Discontinued</label><name>--RSDISC</name><notes>Reason the treatment or product was discontinued.</notes><ordinal>40</ordinal><role>Record Qualifier</role><simpleDatatype>Char</simpleDatatype></classVariable><classVariable><_links><parentClass><href>/mdr/sdtm/2-1/classes/Interventions</href><title>Interventions</title><type>Class</type></parentClass><parentProduct><href>/mdr/sdtm/2-1</href><title>Study Data Tabulation Model Version 2.1</title><type>Foundational Model</type></parentProduct><priorVersion><href>/mdr/sdtm/2-0/classes/Interventions/variables/--USCHFL</href><title>Unscheduled Flag</title><type>SDTM Class Variable</type></priorVersion><rootItem><href>/mdr/root/sdtm/classes/Interventions/variables/--USCHFL</href><title>Version-agnostic anchor resource for SDTM variable Interventions.--USCHFL</title><type>Root Data Element</type></rootItem><self><href>/mdr/sdtm/2-1/classes/Interventions/variables/--USCHFL</href><title>Unscheduled Flag</title><type>SDTM Class Variable</type></self></_links><definition>An indication that the performed test or observation was done at a time that was not planned.</definition><label>Unscheduled Flag</label><name>--USCHFL</name><notes>If a test or observation was performed based upon a schedule defined in the protocol, this flag should be null. Expected values are "Y" or null. This variable would not be needed when information on planned assessments is provided, such as when the Trial Visits (TV) and Subject Visits (SV) domains are used.</notes><ordinal>41</ordinal><role>Record Qualifier</role><simpleDatatype>Char</simpleDatatype><usageRestrictions>Not in human clinical trials</usageRestrictions><variableCcode>C170510</variableCcode></classVariable><classVariable><_links><parentClass><href>/mdr/sdtm/2-1/classes/Interventions</href><title>Interventions</title><type>Class</type></parentClass><parentProduct><href>/mdr/sdtm/2-1</href><title>Study Data Tabulation Model Version 2.1</title><type>Foundational Model</type></parentProduct><priorVersion><href>/mdr/sdtm/2-0/classes/Interventions/variables/--RSTIND</href><title>Restraint Indicator</title><type>SDTM Class Variable</type></priorVersion><rootItem><href>/mdr/root/sdtm/classes/Interventions/variables/--RSTIND</href><title>Version-agnostic anchor resource for SDTM variable Interventions.--RSTIND</title><type>Root Data Element</type></rootItem><self><href>/mdr/sdtm/2-1/classes/Interventions/variables/--RSTIND</href><title>Restraint Indicator</title><type>SDTM Class Variable</type></self></_links><label>Restraint Indicator</label><name>--RSTIND</name><notes>An indicator as to whether the animal subject was restrained during the intervention period. Expected values are "Y" or null.</notes><ordinal>42</ordinal><role>Record Qualifier</role><simpleDatatype>Char</simpleDatatype><usageRestrictions>Not in human clinical trials</usageRestrictions></classVariable><classVariable><_links><parentClass><href>/mdr/sdtm/2-1/classes/Interventions</href><title>Interventions</title><type>Class</type></parentClass><parentProduct><href>/mdr/sdtm/2-1</href><title>Study Data Tabulation Model Version 2.1</title><type>Foundational Model</type></parentProduct><priorVersion><href>/mdr/sdtm/2-0/classes/Interventions/variables/--RSTMOD</href><title>Restraint Mode</title><type>SDTM Class Variable</type></priorVersion><rootItem><href>/mdr/root/sdtm/classes/Interventions/variables/--RSTMOD</href><title>Version-agnostic anchor resource for SDTM variable Interventions.--RSTMOD</title><type>Root Data Element</type></rootItem><self><href>/mdr/sdtm/2-1/classes/Interventions/variables/--RSTMOD</href><title>Restraint Mode</title><type>SDTM Class Variable</type></self></_links><label>Restraint Mode</label><name>--RSTMOD</name><notes>A description of whether the restraint was physical and/or chemical.</notes><ordinal>43</ordinal><role>Record Qualifier</role><simpleDatatype>Char</simpleDatatype><usageRestrictions>Not in human clinical trials</usageRestrictions></classVariable><description>This SDTM class captures investigational, therapeutic and other treatments that are administered to the subject (with some actual or expected physiological effect) either as specified by the study protocol (e.g., exposure to study drug), coincident with the study assessment period (e.g., concomitant medications), or self-administered by the subject (such as use of alcohol, tobacco, or caffeine). (Source: CDISC Controlled Terminology, GNRLOBSC, C103374, 2024-03-29)</description><label>Interventions</label><name>Interventions</name><ordinal>2</ordinal></class><class><_links><parentClass><href>/mdr/sdtm/2-1/classes/GeneralObservations</href><title>General Observations</title><type>Class</type></parentClass><parentProduct><href>/mdr/sdtm/2-1</href><title>Study Data Tabulation Model Version 2.1</title><type>Foundational Model</type></parentProduct><priorVersion><href>/mdr/sdtm/2-0/classes/Events</href><title>Events</title><type>Class</type></priorVersion><self><href>/mdr/sdtm/2-1/classes/Events</href><title>Events</title><type>Class</type></self></_links><classVariable><_links><parentClass><href>/mdr/sdtm/2-1/classes/Events</href><title>Events</title><type>Class</type></parentClass><parentProduct><href>/mdr/sdtm/2-1</href><title>Study Data Tabulation Model Version 2.1</title><type>Foundational Model</type></parentProduct><priorVersion><href>/mdr/sdtm/2-0/classes/Events/variables/--TERM</href><title>Reported Term</title><type>SDTM Class Variable</type></priorVersion><rootItem><href>/mdr/root/sdtm/classes/Events/variables/--TERM</href><title>Version-agnostic anchor resource for SDTM variable Events.--TERM</title><type>Root Data Element</type></rootItem><self><href>/mdr/sdtm/2-1/classes/Events/variables/--TERM</href><title>Reported Term</title><type>SDTM Class Variable</type></self></_links><definition>The collected name for an event observation.</definition><label>Reported Term</label><name>--TERM</name><notes>The verbatim or prespecified name of the event.</notes><ordinal>1</ordinal><role>Topic</role><simpleDatatype>Char</simpleDatatype><variableCcode>C82571</variableCcode></classVariable><classVariable><_links><parentClass><href>/mdr/sdtm/2-1/classes/Events</href><title>Events</title><type>Class</type></parentClass><parentProduct><href>/mdr/sdtm/2-1</href><title>Study Data Tabulation Model Version 2.1</title><type>Foundational Model</type></parentProduct><priorVersion><href>/mdr/sdtm/2-0/classes/Events/variables/--MODIFY</href><title>Modified Reported Term</title><type>SDTM Class Variable</type></priorVersion><qualifiesVariable><href>/mdr/sdtm/2-1/classes/Events/variables/--TERM</href><title>Reported Term</title><type>SDTM Class Variable</type></qualifiesVariable><rootItem><href>/mdr/root/sdtm/classes/Events/variables/--MODIFY</href><title>Version-agnostic anchor resource for SDTM variable Events.--MODIFY</title><type>Root Data Element</type></rootItem><self><href>/mdr/sdtm/2-1/classes/Events/variables/--MODIFY</href><title>Modified Reported Term</title><type>SDTM Class Variable</type></self></_links><definition>A value which represents an alteration to a collected value for coding.</definition><label>Modified Reported Term</label><name>--MODIFY</name><notes>If the value for --TERM is modified for coding purposes, then the modified text is placed here.</notes><ordinal>2</ordinal><role>Synonym Qualifier</role><simpleDatatype>Char</simpleDatatype><variableCcode>C170998</variableCcode></classVariable><classVariable><_links><parentClass><href>/mdr/sdtm/2-1/classes/Events</href><title>Events</title><type>Class</type></parentClass><parentProduct><href>/mdr/sdtm/2-1</href><title>Study Data Tabulation Model Version 2.1</title><type>Foundational Model</type></parentProduct><priorVersion><href>/mdr/sdtm/2-0/classes/Events/variables/--LLT</href><title>Lowest Level Term</title><type>SDTM Class Variable</type></priorVersion><qualifiesVariable><href>/mdr/sdtm/2-1/classes/Events/variables/--TERM</href><title>Reported Term</title><type>SDTM Class Variable</type></qualifiesVariable><rootItem><href>/mdr/root/sdtm/classes/Events/variables/--LLT</href><title>Version-agnostic anchor resource for SDTM variable Events.--LLT</title><type>Root Data Element</type></rootItem><self><href>/mdr/sdtm/2-1/classes/Events/variables/--LLT</href><title>Lowest Level Term</title><type>SDTM Class Variable</type></self></_links><definition>The lowest-level term assigned to the event from MedDRA.</definition><label>Lowest Level Term</label><name>--LLT</name><ordinal>3</ordinal><role>Variable Qualifier</role><simpleDatatype>Char</simpleDatatype><usageRestrictions>Not in nonclinical trials</usageRestrictions><variableCcode>C71886</variableCcode></classVariable><classVariable><_links><parentClass><href>/mdr/sdtm/2-1/classes/Events</href><title>Events</title><type>Class</type></parentClass><parentProduct><href>/mdr/sdtm/2-1</href><title>Study Data Tabulation Model Version 2.1</title><type>Foundational Model</type></parentProduct><priorVersion><href>/mdr/sdtm/2-0/classes/Events/variables/--LLTCD</href><title>Lowest Level Term Code</title><type>SDTM Class Variable</type></priorVersion><qualifiesVariable><href>/mdr/sdtm/2-1/classes/Events/variables/--LLT</href><title>Lowest Level Term</title><type>SDTM Class Variable</type></qualifiesVariable><rootItem><href>/mdr/root/sdtm/classes/Events/variables/--LLTCD</href><title>Version-agnostic anchor resource for SDTM variable Events.--LLTCD</title><type>Root Data Element</type></rootItem><self><href>/mdr/sdtm/2-1/classes/Events/variables/--LLTCD</href><title>Lowest Level Term Code</title><type>SDTM Class Variable</type></self></_links><definition>The lowest-level term code assigned to the event from MedDRA.</definition><label>Lowest Level Term Code</label><name>--LLTCD</name><ordinal>4</ordinal><role>Variable Qualifier</role><simpleDatatype>Num</simpleDatatype><usageRestrictions>Not in nonclinical trials</usageRestrictions><variableCcode>C117048</variableCcode></classVariable><classVariable><_links><parentClass><href>/mdr/sdtm/2-1/classes/Events</href><title>Events</title><type>Class</type></parentClass><parentProduct><href>/mdr/sdtm/2-1</href><title>Study Data Tabulation Model Version 2.1</title><type>Foundational Model</type></parentProduct><priorVersion><href>/mdr/sdtm/2-0/classes/Events/variables/--DECOD</href><title>Dictionary-Derived Term</title><type>SDTM Class Variable</type></priorVersion><qualifiesVariable><href>/mdr/sdtm/2-1/classes/Events/variables/--TERM</href><title>Reported Term</title><type>SDTM Class Variable</type></qualifiesVariable><rootItem><href>/mdr/root/sdtm/classes/Events/variables/--DECOD</href><title>Version-agnostic anchor resource for SDTM variable Events.--DECOD</title><type>Root Data Element</type></rootItem><self><href>/mdr/sdtm/2-1/classes/Events/variables/--DECOD</href><title>Dictionary-Derived Term</title><type>SDTM Class Variable</type></self></_links><definition>Standardized or dictionary-derived text for the description of an event or intervention.</definition><label>Dictionary-Derived Term</label><name>--DECOD</name><notes>Equivalent to the Preferred Term ("PT" in MedDRA).</notes><ordinal>5</ordinal><role>Synonym Qualifier</role><simpleDatatype>Char</simpleDatatype><variableCcode>C170991</variableCcode></classVariable><classVariable><_links><parentClass><href>/mdr/sdtm/2-1/classes/Events</href><title>Events</title><type>Class</type></parentClass><parentProduct><href>/mdr/sdtm/2-1</href><title>Study Data Tabulation Model Version 2.1</title><type>Foundational Model</type></parentProduct><priorVersion><href>/mdr/sdtm/2-0/classes/Events/variables/--EVDTYP</href><title>Medical History Event Date Type</title><type>SDTM Class Variable</type></priorVersion><qualifiesVariable><href>/mdr/sdtm/2-1/classes/GeneralObservations/variables/--STDTC</href><title>Start Date/Time of Observation</title><type>SDTM Class Variable</type></qualifiesVariable><qualifiesVariable><href>/mdr/sdtm/2-1/classes/GeneralObservations/variables/--ENDTC</href><title>End Date/Time of Observation</title><type>SDTM Class Variable</type></qualifiesVariable><rootItem><href>/mdr/root/sdtm/classes/Events/variables/--EVDTYP</href><title>Version-agnostic anchor resource for SDTM variable Events.--EVDTYP</title><type>Root Data Element</type></rootItem><self><href>/mdr/sdtm/2-1/classes/Events/variables/--EVDTYP</href><title>Medical History Event Date Type</title><type>SDTM Class Variable</type></self></_links><examples>"DIAGNOSIS", "SYMPTOM ONSET", "DISEASE RELAPSE"</examples><label>Medical History Event Date Type</label><name>--EVDTYP</name><notes>Specifies the aspect of the medical condition or event by which MHSTDTC and/or the MHENDTC is defined.</notes><ordinal>6</ordinal><role>Variable Qualifier</role><simpleDatatype>Char</simpleDatatype><usageRestrictions>MH domain only</usageRestrictions></classVariable><classVariable><_links><parentClass><href>/mdr/sdtm/2-1/classes/Events</href><title>Events</title><type>Class</type></parentClass><parentProduct><href>/mdr/sdtm/2-1</href><title>Study Data Tabulation Model Version 2.1</title><type>Foundational Model</type></parentProduct><priorVersion><href>/mdr/sdtm/2-0/classes/Events/variables/--PTCD</href><title>Preferred Term Code</title><type>SDTM Class Variable</type></priorVersion><qualifiesVariable><href>/mdr/sdtm/2-1/classes/Events/variables/--DECOD</href><title>Dictionary-Derived Term</title><type>SDTM Class Variable</type></qualifiesVariable><rootItem><href>/mdr/root/sdtm/classes/Events/variables/--PTCD</href><title>Version-agnostic anchor resource for SDTM variable Events.--PTCD</title><type>Root Data Element</type></rootItem><self><href>/mdr/sdtm/2-1/classes/Events/variables/--PTCD</href><title>Preferred Term Code</title><type>SDTM Class Variable</type></self></_links><definition>The preferred term code assigned to the event from MedDRA.</definition><label>Preferred Term Code</label><name>--PTCD</name><ordinal>7</ordinal><role>Variable Qualifier</role><simpleDatatype>Num</simpleDatatype><usageRestrictions>Not in nonclinical trials</usageRestrictions><variableCcode>C117056</variableCcode></classVariable><classVariable><_links><parentClass><href>/mdr/sdtm/2-1/classes/Events</href><title>Events</title><type>Class</type></parentClass><parentProduct><href>/mdr/sdtm/2-1</href><title>Study Data Tabulation Model Version 2.1</title><type>Foundational Model</type></parentProduct><priorVersion><href>/mdr/sdtm/2-0/classes/Events/variables/--HLT</href><title>High Level Term</title><type>SDTM Class Variable</type></priorVersion><qualifiesVariable><href>/mdr/sdtm/2-1/classes/Events/variables/--TERM</href><title>Reported Term</title><type>SDTM Class Variable</type></qualifiesVariable><rootItem><href>/mdr/root/sdtm/classes/Events/variables/--HLT</href><title>Version-agnostic anchor resource for SDTM variable Events.--HLT</title><type>Root Data Element</type></rootItem><self><href>/mdr/sdtm/2-1/classes/Events/variables/--HLT</href><title>High Level Term</title><type>SDTM Class Variable</type></self></_links><definition>The high-level term from the primary hierarchy assigned to the event from MedDRA.</definition><label>High Level Term</label><name>--HLT</name><ordinal>8</ordinal><role>Variable Qualifier</role><simpleDatatype>Char</simpleDatatype><usageRestrictions>Not in nonclinical trials</usageRestrictions><variableCcode>C71880</variableCcode></classVariable><classVariable><_links><parentClass><href>/mdr/sdtm/2-1/classes/Events</href><title>Events</title><type>Class</type></parentClass><parentProduct><href>/mdr/sdtm/2-1</href><title>Study Data Tabulation Model Version 2.1</title><type>Foundational Model</type></parentProduct><priorVersion><href>/mdr/sdtm/2-0/classes/Events/variables/--HLTCD</href><title>High Level Term Code</title><type>SDTM Class Variable</type></priorVersion><qualifiesVariable><href>/mdr/sdtm/2-1/classes/Events/variables/--HLT</href><title>High Level Term</title><type>SDTM Class Variable</type></qualifiesVariable><rootItem><href>/mdr/root/sdtm/classes/Events/variables/--HLTCD</href><title>Version-agnostic anchor resource for SDTM variable Events.--HLTCD</title><type>Root Data Element</type></rootItem><self><href>/mdr/sdtm/2-1/classes/Events/variables/--HLTCD</href><title>High Level Term Code</title><type>SDTM Class Variable</type></self></_links><definition>The high-level term code from the primary hierarchy assigned to the event from MedDRA.</definition><label>High Level Term Code</label><name>--HLTCD</name><ordinal>9</ordinal><role>Variable Qualifier</role><simpleDatatype>Num</simpleDatatype><usageRestrictions>Not in nonclinical trials</usageRestrictions><variableCcode>C117047</variableCcode></classVariable><classVariable><_links><parentClass><href>/mdr/sdtm/2-1/classes/Events</href><title>Events</title><type>Class</type></parentClass><parentProduct><href>/mdr/sdtm/2-1</href><title>Study Data Tabulation Model Version 2.1</title><type>Foundational Model</type></parentProduct><priorVersion><href>/mdr/sdtm/2-0/classes/Events/variables/--HLGT</href><title>High Level Group Term</title><type>SDTM Class Variable</type></priorVersion><qualifiesVariable><href>/mdr/sdtm/2-1/classes/Events/variables/--TERM</href><title>Reported Term</title><type>SDTM Class Variable</type></qualifiesVariable><rootItem><href>/mdr/root/sdtm/classes/Events/variables/--HLGT</href><title>Version-agnostic anchor resource for SDTM variable Events.--HLGT</title><type>Root Data Element</type></rootItem><self><href>/mdr/sdtm/2-1/classes/Events/variables/--HLGT</href><title>High Level Group Term</title><type>SDTM Class Variable</type></self></_links><definition>The high-level group term from the primary hierarchy assigned to the event from MedDRA.</definition><label>High Level Group Term</label><name>--HLGT</name><ordinal>10</ordinal><role>Variable Qualifier</role><simpleDatatype>Char</simpleDatatype><usageRestrictions>Not in nonclinical trials</usageRestrictions><variableCcode>C71889</variableCcode></classVariable><classVariable><_links><parentClass><href>/mdr/sdtm/2-1/classes/Events</href><title>Events</title><type>Class</type></parentClass><parentProduct><href>/mdr/sdtm/2-1</href><title>Study Data Tabulation Model Version 2.1</title><type>Foundational Model</type></parentProduct><priorVersion><href>/mdr/sdtm/2-0/classes/Events/variables/--HLGTCD</href><title>High Level Group Term Code</title><type>SDTM Class Variable</type></priorVersion><qualifiesVariable><href>/mdr/sdtm/2-1/classes/Events/variables/--HLGT</href><title>High Level Group Term</title><type>SDTM Class Variable</type></qualifiesVariable><rootItem><href>/mdr/root/sdtm/classes/Events/variables/--HLGTCD</href><title>Version-agnostic anchor resource for SDTM variable Events.--HLGTCD</title><type>Root Data Element</type></rootItem><self><href>/mdr/sdtm/2-1/classes/Events/variables/--HLGTCD</href><title>High Level Group Term Code</title><type>SDTM Class Variable</type></self></_links><definition>The high-level group term code from the primary hierarchy assigned to the event from MedDRA.</definition><label>High Level Group Term Code</label><name>--HLGTCD</name><ordinal>11</ordinal><role>Variable Qualifier</role><simpleDatatype>Num</simpleDatatype><usageRestrictions>Not in nonclinical trials</usageRestrictions><variableCcode>C117046</variableCcode></classVariable><classVariable><_links><parentClass><href>/mdr/sdtm/2-1/classes/Events</href><title>Events</title><type>Class</type></parentClass><parentProduct><href>/mdr/sdtm/2-1</href><title>Study Data Tabulation Model Version 2.1</title><type>Foundational Model</type></parentProduct><priorVersion><href>/mdr/sdtm/2-0/classes/Events/variables/--CAT</href><title>Category</title><type>SDTM Class Variable</type></priorVersion><rootItem><href>/mdr/root/sdtm/classes/Events/variables/--CAT</href><title>Version-agnostic anchor resource for SDTM variable Events.--CAT</title><type>Root Data Element</type></rootItem><self><href>/mdr/sdtm/2-1/classes/Events/variables/--CAT</href><title>Category</title><type>SDTM Class Variable</type></self></_links><definition>A grouping or classification of the topic of the finding, event, or intervention.</definition><label>Category</label><name>--CAT</name><ordinal>12</ordinal><role>Grouping Qualifier</role><simpleDatatype>Char</simpleDatatype><variableCcode>C25372</variableCcode></classVariable><classVariable><_links><parentClass><href>/mdr/sdtm/2-1/classes/Events</href><title>Events</title><type>Class</type></parentClass><parentProduct><href>/mdr/sdtm/2-1</href><title>Study Data Tabulation Model Version 2.1</title><type>Foundational Model</type></parentProduct><priorVersion><href>/mdr/sdtm/2-0/classes/Events/variables/--SCAT</href><title>Subcategory</title><type>SDTM Class Variable</type></priorVersion><rootItem><href>/mdr/root/sdtm/classes/Events/variables/--SCAT</href><title>Version-agnostic anchor resource for SDTM variable Events.--SCAT</title><type>Root Data Element</type></rootItem><self><href>/mdr/sdtm/2-1/classes/Events/variables/--SCAT</href><title>Subcategory</title><type>SDTM Class Variable</type></self></_links><definition>A further grouping or classification of the category for the topic of the finding, event, or intervention.</definition><label>Subcategory</label><name>--SCAT</name><notes>The category is in --CAT.</notes><ordinal>13</ordinal><role>Grouping Qualifier</role><simpleDatatype>Char</simpleDatatype><variableCcode>C25692</variableCcode></classVariable><classVariable><_links><parentClass><href>/mdr/sdtm/2-1/classes/Events</href><title>Events</title><type>Class</type></parentClass><parentProduct><href>/mdr/sdtm/2-1</href><title>Study Data Tabulation Model Version 2.1</title><type>Foundational Model</type></parentProduct><priorVersion><href>/mdr/sdtm/2-0/classes/Events/variables/--PRESP</href><title>Pre-Specified</title><type>SDTM Class Variable</type></priorVersion><qualifiesVariable><href>/mdr/sdtm/2-1/classes/Events/variables/--TERM</href><title>Reported Term</title><type>SDTM Class Variable</type></qualifiesVariable><rootItem><href>/mdr/root/sdtm/classes/Events/variables/--PRESP</href><title>Version-agnostic anchor resource for SDTM variable Events.--PRESP</title><type>Root Data Element</type></rootItem><self><href>/mdr/sdtm/2-1/classes/Events/variables/--PRESP</href><title>Pre-Specified</title><type>SDTM Class Variable</type></self></_links><definition>An indication that the event or intervention was prospectively stated or detailed on the CRF.</definition><label>Pre-Specified</label><name>--PRESP</name><notes>Value is "Y" for prespecified events, null for spontaneously reported events.</notes><ordinal>14</ordinal><role>Variable Qualifier</role><simpleDatatype>Char</simpleDatatype><variableCcode>C82510</variableCcode></classVariable><classVariable><_links><parentClass><href>/mdr/sdtm/2-1/classes/Events</href><title>Events</title><type>Class</type></parentClass><parentProduct><href>/mdr/sdtm/2-1</href><title>Study Data Tabulation Model Version 2.1</title><type>Foundational Model</type></parentProduct><priorVersion><href>/mdr/sdtm/2-0/classes/Events/variables/--OCCUR</href><title>Occurrence Indicator</title><type>SDTM Class Variable</type></priorVersion><rootItem><href>/mdr/root/sdtm/classes/Events/variables/--OCCUR</href><title>Version-agnostic anchor resource for SDTM variable Events.--OCCUR</title><type>Root Data Element</type></rootItem><self><href>/mdr/sdtm/2-1/classes/Events/variables/--OCCUR</href><title>Occurrence Indicator</title><type>SDTM Class Variable</type></self></_links><definition>An indication as to whether a prespecified event or intervention has occurred.</definition><label>Occurrence Indicator</label><name>--OCCUR</name><ordinal>15</ordinal><role>Record Qualifier</role><simpleDatatype>Char</simpleDatatype><usageRestrictions>Not in AE domain</usageRestrictions><variableCcode>C171000</variableCcode></classVariable><classVariable><_links><parentClass><href>/mdr/sdtm/2-1/classes/Events</href><title>Events</title><type>Class</type></parentClass><parentProduct><href>/mdr/sdtm/2-1</href><title>Study Data Tabulation Model Version 2.1</title><type>Foundational Model</type></parentProduct><priorVersion><href>/mdr/sdtm/2-0/classes/Events/variables/--REASOC</href><title>Reason for Occur Value</title><type>SDTM Class Variable</type></priorVersion><rootItem><href>/mdr/root/sdtm/classes/Events/variables/--REASOC</href><title>Version-agnostic anchor resource for SDTM variable Events.--REASOC</title><type>Root Data Element</type></rootItem><self><href>/mdr/sdtm/2-1/classes/Events/variables/--REASOC</href><title>Reason for Occur Value</title><type>SDTM Class Variable</type></self></_links><label>Reason for Occur Value</label><name>--REASOC</name><notes>--REASOC is the reason the event did or did not occur, according to the value in --OCCUR.</notes><ordinal>16</ordinal><role>Record Qualifier</role><simpleDatatype>Char</simpleDatatype><usageRestrictions>Not in AE domain</usageRestrictions></classVariable><classVariable><_links><parentClass><href>/mdr/sdtm/2-1/classes/Events</href><title>Events</title><type>Class</type></parentClass><parentProduct><href>/mdr/sdtm/2-1</href><title>Study Data Tabulation Model Version 2.1</title><type>Foundational Model</type></parentProduct><priorVersion><href>/mdr/sdtm/2-0/classes/Events/variables/--STAT</href><title>Completion Status</title><type>SDTM Class Variable</type></priorVersion><rootItem><href>/mdr/root/sdtm/classes/Events/variables/--STAT</href><title>Version-agnostic anchor resource for SDTM variable Events.--STAT</title><type>Root Data Element</type></rootItem><self><href>/mdr/sdtm/2-1/classes/Events/variables/--STAT</href><title>Completion Status</title><type>SDTM Class Variable</type></self></_links><label>Completion Status</label><name>--STAT</name><notes>Used to indicate when a question about the occurrence of a prespecified event was not answered. Should be null or have a value of "NOT DONE".</notes><ordinal>17</ordinal><role>Record Qualifier</role><simpleDatatype>Char</simpleDatatype><usageRestrictions>Not in AE domain</usageRestrictions></classVariable><classVariable><_links><parentClass><href>/mdr/sdtm/2-1/classes/Events</href><title>Events</title><type>Class</type></parentClass><parentProduct><href>/mdr/sdtm/2-1</href><title>Study Data Tabulation Model Version 2.1</title><type>Foundational Model</type></parentProduct><priorVersion><href>/mdr/sdtm/2-0/classes/Events/variables/--REASND</href><title>Reason Not Done</title><type>SDTM Class Variable</type></priorVersion><rootItem><href>/mdr/root/sdtm/classes/Events/variables/--REASND</href><title>Version-agnostic anchor resource for SDTM variable Events.--REASND</title><type>Root Data Element</type></rootItem><self><href>/mdr/sdtm/2-1/classes/Events/variables/--REASND</href><title>Reason Not Done</title><type>SDTM Class Variable</type></self></_links><definition>The explanation for why requested information was not available.</definition><label>Reason Not Done</label><name>--REASND</name><notes>Used in conjunction with --STAT when its value is "NOT DONE".</notes><ordinal>18</ordinal><role>Record Qualifier</role><simpleDatatype>Char</simpleDatatype><usageRestrictions>Not in AE domain</usageRestrictions><variableCcode>C82556</variableCcode></classVariable><classVariable><_links><parentClass><href>/mdr/sdtm/2-1/classes/Events</href><title>Events</title><type>Class</type></parentClass><parentProduct><href>/mdr/sdtm/2-1</href><title>Study Data Tabulation Model Version 2.1</title><type>Foundational Model</type></parentProduct><priorVersion><href>/mdr/sdtm/2-0/classes/Events/variables/--BODSYS</href><title>Body System or Organ Class</title><type>SDTM Class Variable</type></priorVersion><rootItem><href>/mdr/root/sdtm/classes/Events/variables/--BODSYS</href><title>Version-agnostic anchor resource for SDTM variable Events.--BODSYS</title><type>Root Data Element</type></rootItem><self><href>/mdr/sdtm/2-1/classes/Events/variables/--BODSYS</href><title>Body System or Organ Class</title><type>SDTM Class Variable</type></self></_links><definition>A standardized or dictionary-derived name for the body system or organ class.</definition><examples>GASTROINTESTINAL DISORDERS</examples><label>Body System or Organ Class</label><name>--BODSYS</name><notes>Body system or system organ class assigned for analysis from a standard hierarchy (e.g., MedDRA) associated with an event.</notes><ordinal>19</ordinal><role>Record Qualifier</role><simpleDatatype>Char</simpleDatatype><variableCcode>C170986</variableCcode></classVariable><classVariable><_links><parentClass><href>/mdr/sdtm/2-1/classes/Events</href><title>Events</title><type>Class</type></parentClass><parentProduct><href>/mdr/sdtm/2-1</href><title>Study Data Tabulation Model Version 2.1</title><type>Foundational Model</type></parentProduct><priorVersion><href>/mdr/sdtm/2-0/classes/Events/variables/--BDSYCD</href><title>Body System or Organ Class Code</title><type>SDTM Class Variable</type></priorVersion><qualifiesVariable><href>/mdr/sdtm/2-1/classes/Events/variables/--BODSYS</href><title>Body System or Organ Class</title><type>SDTM Class Variable</type></qualifiesVariable><rootItem><href>/mdr/root/sdtm/classes/Events/variables/--BDSYCD</href><title>Version-agnostic anchor resource for SDTM variable Events.--BDSYCD</title><type>Root Data Element</type></rootItem><self><href>/mdr/sdtm/2-1/classes/Events/variables/--BDSYCD</href><title>Body System or Organ Class Code</title><type>SDTM Class Variable</type></self></_links><definition>A standardized or dictionary-derived short sequence of characters used to represent the body system or organ class.</definition><label>Body System or Organ Class Code</label><name>--BDSYCD</name><notes>MedDRA System Organ Class (SOC) code corresponding to --BODSYS assigned for analysis.</notes><ordinal>20</ordinal><role>Variable Qualifier</role><simpleDatatype>Num</simpleDatatype><usageRestrictions>Not in nonclinical trials</usageRestrictions><variableCcode>C170985</variableCcode></classVariable><classVariable><_links><parentClass><href>/mdr/sdtm/2-1/classes/Events</href><title>Events</title><type>Class</type></parentClass><parentProduct><href>/mdr/sdtm/2-1</href><title>Study Data Tabulation Model Version 2.1</title><type>Foundational Model</type></parentProduct><priorVersion><href>/mdr/sdtm/2-0/classes/Events/variables/--SOC</href><title>Primary System Organ Class</title><type>SDTM Class Variable</type></priorVersion><qualifiesVariable><href>/mdr/sdtm/2-1/classes/Events/variables/--TERM</href><title>Reported Term</title><type>SDTM Class Variable</type></qualifiesVariable><rootItem><href>/mdr/root/sdtm/classes/Events/variables/--SOC</href><title>Version-agnostic anchor resource for SDTM variable Events.--SOC</title><type>Root Data Element</type></rootItem><self><href>/mdr/sdtm/2-1/classes/Events/variables/--SOC</href><title>Primary System Organ Class</title><type>SDTM Class Variable</type></self></_links><definition>The SOC from the primary hierarchy assigned in the MedDRA dictionary.</definition><label>Primary System Organ Class</label><name>--SOC</name><ordinal>21</ordinal><role>Variable Qualifier</role><simpleDatatype>Char</simpleDatatype><usageRestrictions>Not in nonclinical trials</usageRestrictions><variableCcode>C71888</variableCcode></classVariable><classVariable><_links><parentClass><href>/mdr/sdtm/2-1/classes/Events</href><title>Events</title><type>Class</type></parentClass><parentProduct><href>/mdr/sdtm/2-1</href><title>Study Data Tabulation Model Version 2.1</title><type>Foundational Model</type></parentProduct><priorVersion><href>/mdr/sdtm/2-0/classes/Events/variables/--SOCCD</href><title>Primary System Organ Class Code</title><type>SDTM Class Variable</type></priorVersion><qualifiesVariable><href>/mdr/sdtm/2-1/classes/Events/variables/--SOC</href><title>Primary System Organ Class</title><type>SDTM Class Variable</type></qualifiesVariable><rootItem><href>/mdr/root/sdtm/classes/Events/variables/--SOCCD</href><title>Version-agnostic anchor resource for SDTM variable Events.--SOCCD</title><type>Root Data Element</type></rootItem><self><href>/mdr/sdtm/2-1/classes/Events/variables/--SOCCD</href><title>Primary System Organ Class Code</title><type>SDTM Class Variable</type></self></_links><definition>The SOC code from the primary hierarchy assigned in the MedDRA dictionary.</definition><label>Primary System Organ Class Code</label><name>--SOCCD</name><ordinal>22</ordinal><role>Variable Qualifier</role><simpleDatatype>Num</simpleDatatype><usageRestrictions>Not in nonclinical trials</usageRestrictions><variableCcode>C117059</variableCcode></classVariable><classVariable><_links><parentClass><href>/mdr/sdtm/2-1/classes/Events</href><title>Events</title><type>Class</type></parentClass><parentProduct><href>/mdr/sdtm/2-1</href><title>Study Data Tabulation Model Version 2.1</title><type>Foundational Model</type></parentProduct><priorVersion><href>/mdr/sdtm/2-0/classes/Events/variables/--CNTMOD</href><title>Contact Mode</title><type>SDTM Class Variable</type></priorVersion><rootItem><href>/mdr/root/sdtm/classes/Events/variables/--CNTMOD</href><title>Version-agnostic anchor resource for SDTM variable Events.--CNTMOD</title><type>Root Data Element</type></rootItem><self><href>/mdr/sdtm/2-1/classes/Events/variables/--CNTMOD</href><title>Contact Mode</title><type>SDTM Class Variable</type></self></_links><examples>"IN PERSON", "TELEPHONE", "IVRS"</examples><label>Contact Mode</label><name>--CNTMOD</name><notes>The way in which the event, visit, or contact was conducted.</notes><ordinal>23</ordinal><role>Record Qualifier</role><simpleDatatype>Char</simpleDatatype></classVariable><classVariable><_links><parentClass><href>/mdr/sdtm/2-1/classes/Events</href><title>Events</title><type>Class</type></parentClass><parentProduct><href>/mdr/sdtm/2-1</href><title>Study Data Tabulation Model Version 2.1</title><type>Foundational Model</type></parentProduct><priorVersion><href>/mdr/sdtm/2-0/classes/Events/variables/--EPCHGI</href><title>Epi/Pandemic Related Change Indicator</title><type>SDTM Class Variable</type></priorVersion><rootItem><href>/mdr/root/sdtm/classes/Events/variables/--EPCHGI</href><title>Version-agnostic anchor resource for SDTM variable Events.--EPCHGI</title><type>Root Data Element</type></rootItem><self><href>/mdr/sdtm/2-1/classes/Events/variables/--EPCHGI</href><title>Epi/Pandemic Related Change Indicator</title><type>SDTM Class Variable</type></self></_links><label>Epi/Pandemic Related Change Indicator</label><name>--EPCHGI</name><notes>Indicates whether the event was changed due to an epidemic or pandemic. Not the same as whether a medical condition was caused by an epidemic or pandemic.</notes><ordinal>24</ordinal><role>Record Qualifier</role><simpleDatatype>Char</simpleDatatype></classVariable><classVariable><_links><parentClass><href>/mdr/sdtm/2-1/classes/Events</href><title>Events</title><type>Class</type></parentClass><parentProduct><href>/mdr/sdtm/2-1</href><title>Study Data Tabulation Model Version 2.1</title><type>Foundational Model</type></parentProduct><priorVersion><href>/mdr/sdtm/2-0/classes/Events/variables/--LOC</href><title>Location of Event</title><type>SDTM Class Variable</type></priorVersion><rootItem><href>/mdr/root/sdtm/classes/Events/variables/--LOC</href><title>Version-agnostic anchor resource for SDTM variable Events.--LOC</title><type>Root Data Element</type></rootItem><self><href>/mdr/sdtm/2-1/classes/Events/variables/--LOC</href><title>Location of Event</title><type>SDTM Class Variable</type></self></_links><examples>ARM for skin rash</examples><label>Location of Event</label><name>--LOC</name><notes>Describes anatomical location relevant for the event.</notes><ordinal>25</ordinal><role>Record Qualifier</role><simpleDatatype>Char</simpleDatatype></classVariable><classVariable><_links><parentClass><href>/mdr/sdtm/2-1/classes/Events</href><title>Events</title><type>Class</type></parentClass><parentProduct><href>/mdr/sdtm/2-1</href><title>Study Data Tabulation Model Version 2.1</title><type>Foundational Model</type></parentProduct><priorVersion><href>/mdr/sdtm/2-0/classes/Events/variables/--LAT</href><title>Laterality</title><type>SDTM Class Variable</type></priorVersion><qualifiesVariable><href>/mdr/sdtm/2-1/classes/Events/variables/--LOC</href><title>Location of Event</title><type>SDTM Class Variable</type></qualifiesVariable><rootItem><href>/mdr/root/sdtm/classes/Events/variables/--LAT</href><title>Version-agnostic anchor resource for SDTM variable Events.--LAT</title><type>Root Data Element</type></rootItem><self><href>/mdr/sdtm/2-1/classes/Events/variables/--LAT</href><title>Laterality</title><type>SDTM Class Variable</type></self></_links><examples>"RIGHT", "LEFT", "BILATERAL"</examples><label>Laterality</label><name>--LAT</name><notes>Qualifier for anatomical location, further detailing laterality.</notes><ordinal>26</ordinal><role>Variable Qualifier</role><simpleDatatype>Char</simpleDatatype></classVariable><classVariable><_links><parentClass><href>/mdr/sdtm/2-1/classes/Events</href><title>Events</title><type>Class</type></parentClass><parentProduct><href>/mdr/sdtm/2-1</href><title>Study Data Tabulation Model Version 2.1</title><type>Foundational Model</type></parentProduct><priorVersion><href>/mdr/sdtm/2-0/classes/Events/variables/--DIR</href><title>Directionality</title><type>SDTM Class Variable</type></priorVersion><qualifiesVariable><href>/mdr/sdtm/2-1/classes/Events/variables/--LOC</href><title>Location of Event</title><type>SDTM Class Variable</type></qualifiesVariable><rootItem><href>/mdr/root/sdtm/classes/Events/variables/--DIR</href><title>Version-agnostic anchor resource for SDTM variable Events.--DIR</title><type>Root Data Element</type></rootItem><self><href>/mdr/sdtm/2-1/classes/Events/variables/--DIR</href><title>Directionality</title><type>SDTM Class Variable</type></self></_links><examples>"ANTERIOR", "LOWER", "PROXIMAL"</examples><label>Directionality</label><name>--DIR</name><notes>Qualifier for anatomical location, further detailing directionality.</notes><ordinal>27</ordinal><role>Variable Qualifier</role><simpleDatatype>Char</simpleDatatype></classVariable><classVariable><_links><parentClass><href>/mdr/sdtm/2-1/classes/Events</href><title>Events</title><type>Class</type></parentClass><parentProduct><href>/mdr/sdtm/2-1</href><title>Study Data Tabulation Model Version 2.1</title><type>Foundational Model</type></parentProduct><priorVersion><href>/mdr/sdtm/2-0/classes/Events/variables/--PORTOT</href><title>Portion or Totality</title><type>SDTM Class Variable</type></priorVersion><qualifiesVariable><href>/mdr/sdtm/2-1/classes/Events/variables/--LOC</href><title>Location of Event</title><type>SDTM Class Variable</type></qualifiesVariable><rootItem><href>/mdr/root/sdtm/classes/Events/variables/--PORTOT</href><title>Version-agnostic anchor resource for SDTM variable Events.--PORTOT</title><type>Root Data Element</type></rootItem><self><href>/mdr/sdtm/2-1/classes/Events/variables/--PORTOT</href><title>Portion or Totality</title><type>SDTM Class Variable</type></self></_links><examples>"ENTIRE", "SINGLE", "SEGMENT", "MANY"</examples><label>Portion or Totality</label><name>--PORTOT</name><notes>Qualifier for anatomical location, further detailing the distribution (i.e., arrangement of, apportioning of).</notes><ordinal>28</ordinal><role>Variable Qualifier</role><simpleDatatype>Char</simpleDatatype></classVariable><classVariable><_links><parentClass><href>/mdr/sdtm/2-1/classes/Events</href><title>Events</title><type>Class</type></parentClass><parentProduct><href>/mdr/sdtm/2-1</href><title>Study Data Tabulation Model Version 2.1</title><type>Foundational Model</type></parentProduct><priorVersion><href>/mdr/sdtm/2-0/classes/Events/variables/--PARTY</href><title>Accountable Party</title><type>SDTM Class Variable</type></priorVersion><rootItem><href>/mdr/root/sdtm/classes/Events/variables/--PARTY</href><title>Version-agnostic anchor resource for SDTM variable Events.--PARTY</title><type>Root Data Element</type></rootItem><self><href>/mdr/sdtm/2-1/classes/Events/variables/--PARTY</href><title>Accountable Party</title><type>SDTM Class Variable</type></self></_links><definition>The role of the individual or entity responsible for the receipt of the transferred object (e.g., device, specimen).</definition><label>Accountable Party</label><name>--PARTY</name><notes>The party could be an individual (e.g., subject), an organization (e.g., sponsor), or a location that is a proxy for an individual or organization (e.g., site). It is usually a somewhat general term that is further identified in the --PRTYID variable.</notes><ordinal>29</ordinal><role>Record Qualifier</role><simpleDatatype>Char</simpleDatatype><usageRestrictions>Not in nonclinical trials</usageRestrictions><variableCcode>C117052</variableCcode></classVariable><classVariable><_links><parentClass><href>/mdr/sdtm/2-1/classes/Events</href><title>Events</title><type>Class</type></parentClass><parentProduct><href>/mdr/sdtm/2-1</href><title>Study Data Tabulation Model Version 2.1</title><type>Foundational Model</type></parentProduct><priorVersion><href>/mdr/sdtm/2-0/classes/Events/variables/--PRTYID</href><title>Identification of Accountable Party</title><type>SDTM Class Variable</type></priorVersion><qualifiesVariable><href>/mdr/sdtm/2-1/classes/Events/variables/--PARTY</href><title>Accountable Party</title><type>SDTM Class Variable</type></qualifiesVariable><rootItem><href>/mdr/root/sdtm/classes/Events/variables/--PRTYID</href><title>Version-agnostic anchor resource for SDTM variable Events.--PRTYID</title><type>Root Data Element</type></rootItem><self><href>/mdr/sdtm/2-1/classes/Events/variables/--PRTYID</href><title>Identification of Accountable Party</title><type>SDTM Class Variable</type></self></_links><definition>A sequence of characters used to uniquely identify the individual or entity responsible for the receipt of the transferred object (e.g., device, specimen).</definition><label>Identification of Accountable Party</label><name>--PRTYID</name><notes>Used in conjunction with --PARTY.</notes><ordinal>30</ordinal><role>Variable Qualifier</role><simpleDatatype>Char</simpleDatatype><usageRestrictions>Not in nonclinical trials</usageRestrictions><variableCcode>C117054</variableCcode></classVariable><classVariable><_links><parentClass><href>/mdr/sdtm/2-1/classes/Events</href><title>Events</title><type>Class</type></parentClass><parentProduct><href>/mdr/sdtm/2-1</href><title>Study Data Tabulation Model Version 2.1</title><type>Foundational Model</type></parentProduct><priorVersion><href>/mdr/sdtm/2-0/classes/Events/variables/--SEV</href><title>Severity/Intensity</title><type>SDTM Class Variable</type></priorVersion><rootItem><href>/mdr/root/sdtm/classes/Events/variables/--SEV</href><title>Version-agnostic anchor resource for SDTM variable Events.--SEV</title><type>Root Data Element</type></rootItem><self><href>/mdr/sdtm/2-1/classes/Events/variables/--SEV</href><title>Severity/Intensity</title><type>SDTM Class Variable</type></self></_links><definition>The quality or degree of harm associated with a finding or event, as collected.</definition><examples>"MILD", "MODERATE", "SEVERE"</examples><label>Severity/Intensity</label><name>--SEV</name><ordinal>31</ordinal><role>Record Qualifier</role><simpleDatatype>Char</simpleDatatype><variableCcode>C25676</variableCcode></classVariable><classVariable><_links><parentClass><href>/mdr/sdtm/2-1/classes/Events</href><title>Events</title><type>Class</type></parentClass><parentProduct><href>/mdr/sdtm/2-1</href><title>Study Data Tabulation Model Version 2.1</title><type>Foundational Model</type></parentProduct><priorVersion><href>/mdr/sdtm/2-0/classes/Events/variables/--SER</href><title>Serious Event</title><type>SDTM Class Variable</type></priorVersion><rootItem><href>/mdr/root/sdtm/classes/Events/variables/--SER</href><title>Version-agnostic anchor resource for SDTM variable Events.--SER</title><type>Root Data Element</type></rootItem><self><href>/mdr/sdtm/2-1/classes/Events/variables/--SER</href><title>Serious Event</title><type>SDTM Class Variable</type></self></_links><definition>A collected indication as to whether an event meets regulatory criteria for seriousness.</definition><label>Serious Event</label><name>--SER</name><notes>Valid values are "Y" and "N".</notes><ordinal>32</ordinal><role>Record Qualifier</role><simpleDatatype>Char</simpleDatatype><variableCcode>C82578</variableCcode></classVariable><classVariable><_links><parentClass><href>/mdr/sdtm/2-1/classes/Events</href><title>Events</title><type>Class</type></parentClass><parentProduct><href>/mdr/sdtm/2-1</href><title>Study Data Tabulation Model Version 2.1</title><type>Foundational Model</type></parentProduct><priorVersion><href>/mdr/sdtm/2-0/classes/Events/variables/--ACN</href><title>Action Taken with Study Treatment</title><type>SDTM Class Variable</type></priorVersion><rootItem><href>/mdr/root/sdtm/classes/Events/variables/--ACN</href><title>Version-agnostic anchor resource for SDTM variable Events.--ACN</title><type>Root Data Element</type></rootItem><self><href>/mdr/sdtm/2-1/classes/Events/variables/--ACN</href><title>Action Taken w/ Study Trtmnt or Product</title><type>SDTM Class Variable</type></self></_links><definition>An action taken with study treatment or product, as the result of the event.</definition><examples>"DOSE INCREASED", "DOSE NOT CHANGED"</examples><label>Action Taken w/ Study Trtmnt or Product</label><name>--ACN</name><ordinal>33</ordinal><role>Record Qualifier</role><simpleDatatype>Char</simpleDatatype><variableCcode>C49499</variableCcode></classVariable><classVariable><_links><parentClass><href>/mdr/sdtm/2-1/classes/Events</href><title>Events</title><type>Class</type></parentClass><parentProduct><href>/mdr/sdtm/2-1</href><title>Study Data Tabulation Model Version 2.1</title><type>Foundational Model</type></parentProduct><priorVersion><href>/mdr/sdtm/2-0/classes/Events/variables/--ACNOTH</href><title>Other Action Taken</title><type>SDTM Class Variable</type></priorVersion><rootItem><href>/mdr/root/sdtm/classes/Events/variables/--ACNOTH</href><title>Version-agnostic anchor resource for SDTM variable Events.--ACNOTH</title><type>Root Data Element</type></rootItem><self><href>/mdr/sdtm/2-1/classes/Events/variables/--ACNOTH</href><title>Other Action Taken</title><type>SDTM Class Variable</type></self></_links><definition>An action taken unrelated to study treatment or product, as the result of the event.</definition><label>Other Action Taken</label><name>--ACNOTH</name><ordinal>34</ordinal><role>Record Qualifier</role><simpleDatatype>Char</simpleDatatype><variableCcode>C82509</variableCcode></classVariable><classVariable><_links><parentClass><href>/mdr/sdtm/2-1/classes/Events</href><title>Events</title><type>Class</type></parentClass><parentProduct><href>/mdr/sdtm/2-1</href><title>Study Data Tabulation Model Version 2.1</title><type>Foundational Model</type></parentProduct><priorVersion><href>/mdr/sdtm/2-0/classes/Events/variables/--ACNDEV</href><title>Action Taken with Device</title><type>SDTM Class Variable</type></priorVersion><rootItem><href>/mdr/root/sdtm/classes/Events/variables/--ACNDEV</href><title>Version-agnostic anchor resource for SDTM variable Events.--ACNDEV</title><type>Root Data Element</type></rootItem><self><href>/mdr/sdtm/2-1/classes/Events/variables/--ACNDEV</href><title>Action Taken with Device</title><type>SDTM Class Variable</type></self></_links><definition>An action taken with a device as the result of the event.</definition><label>Action Taken with Device</label><name>--ACNDEV</name><notes>The device may or may not be the device under study.</notes><ordinal>35</ordinal><role>Record Qualifier</role><simpleDatatype>Char</simpleDatatype><variableCcode>C117037</variableCcode></classVariable><classVariable><_links><parentClass><href>/mdr/sdtm/2-1/classes/Events</href><title>Events</title><type>Class</type></parentClass><parentProduct><href>/mdr/sdtm/2-1</href><title>Study Data Tabulation Model Version 2.1</title><type>Foundational Model</type></parentProduct><priorVersion><href>/mdr/sdtm/2-0/classes/Events/variables/--REL</href><title>Causality</title><type>SDTM Class Variable</type></priorVersion><rootItem><href>/mdr/root/sdtm/classes/Events/variables/--REL</href><title>Version-agnostic anchor resource for SDTM variable Events.--REL</title><type>Root Data Element</type></rootItem><self><href>/mdr/sdtm/2-1/classes/Events/variables/--REL</href><title>Causality</title><type>SDTM Class Variable</type></self></_links><definition>The investigator's assessment of the likelihood that the study treatment or product was the cause of the event.</definition><examples>"NOT RELATED", "UNLIKELY RELATED", "POSSIBLY RELATED", "RELATED"</examples><label>Causality</label><name>--REL</name><ordinal>36</ordinal><role>Record Qualifier</role><simpleDatatype>Char</simpleDatatype><variableCcode>C103163</variableCcode></classVariable><classVariable><_links><parentClass><href>/mdr/sdtm/2-1/classes/Events</href><title>Events</title><type>Class</type></parentClass><parentProduct><href>/mdr/sdtm/2-1</href><title>Study Data Tabulation Model Version 2.1</title><type>Foundational Model</type></parentProduct><priorVersion><href>/mdr/sdtm/2-0/classes/Events/variables/--RLDEV</href><title>Relationship of Event to Device</title><type>SDTM Class Variable</type></priorVersion><rootItem><href>/mdr/root/sdtm/classes/Events/variables/--RLDEV</href><title>Version-agnostic anchor resource for SDTM variable Events.--RLDEV</title><type>Root Data Element</type></rootItem><self><href>/mdr/sdtm/2-1/classes/Events/variables/--RLDEV</href><title>Relationship of Event to Device</title><type>SDTM Class Variable</type></self></_links><examples>"CAUSAL", "UNLIKELY"</examples><label>Relationship of Event to Device</label><name>--RLDEV</name><notes>A judgment as to the likelihood that the device caused the event. \n The device may or may not be the device under study. Controlled terminology from EC Directive MEDDEV 2.7/3 March 2015 is required in EU but not US.</notes><ordinal>37</ordinal><role>Record Qualifier</role><simpleDatatype>Char</simpleDatatype></classVariable><classVariable><_links><parentClass><href>/mdr/sdtm/2-1/classes/Events</href><title>Events</title><type>Class</type></parentClass><parentProduct><href>/mdr/sdtm/2-1</href><title>Study Data Tabulation Model Version 2.1</title><type>Foundational Model</type></parentProduct><priorVersion><href>/mdr/sdtm/2-0/classes/Events/variables/--RELNST</href><title>Relationship to Non-Study Treatment</title><type>SDTM Class Variable</type></priorVersion><rootItem><href>/mdr/root/sdtm/classes/Events/variables/--RELNST</href><title>Version-agnostic anchor resource for SDTM variable Events.--RELNST</title><type>Root Data Element</type></rootItem><self><href>/mdr/sdtm/2-1/classes/Events/variables/--RELNST</href><title>Relationship to Non-Study Treatment</title><type>SDTM Class Variable</type></self></_links><definition>The investigator's assessment of the causal relationship of the event to a non-study treatment.</definition><examples>MORE LIKELY RELATED TO ASPIRIN USE</examples><label>Relationship to Non-Study Treatment</label><name>--RELNST</name><ordinal>38</ordinal><role>Record Qualifier</role><simpleDatatype>Char</simpleDatatype><variableCcode>C82564</variableCcode></classVariable><classVariable><_links><parentClass><href>/mdr/sdtm/2-1/classes/Events</href><title>Events</title><type>Class</type></parentClass><parentProduct><href>/mdr/sdtm/2-1</href><title>Study Data Tabulation Model Version 2.1</title><type>Foundational Model</type></parentProduct><priorVersion><href>/mdr/sdtm/2-0/classes/Events/variables/--PATT</href><title>Pattern of Event</title><type>SDTM Class Variable</type></priorVersion><rootItem><href>/mdr/root/sdtm/classes/Events/variables/--PATT</href><title>Version-agnostic anchor resource for SDTM variable Events.--PATT</title><type>Root Data Element</type></rootItem><self><href>/mdr/sdtm/2-1/classes/Events/variables/--PATT</href><title>Pattern of Event</title><type>SDTM Class Variable</type></self></_links><definition>A characterization of the temporal pattern of occurrences of the event.</definition><examples>"INTERMITTENT", "CONTINUOUS", "SINGLE EVENT"</examples><label>Pattern of Event</label><name>--PATT</name><ordinal>39</ordinal><role>Record Qualifier</role><simpleDatatype>Char</simpleDatatype><variableCcode>C82550</variableCcode></classVariable><classVariable><_links><parentClass><href>/mdr/sdtm/2-1/classes/Events</href><title>Events</title><type>Class</type></parentClass><parentProduct><href>/mdr/sdtm/2-1</href><title>Study Data Tabulation Model Version 2.1</title><type>Foundational Model</type></parentProduct><priorVersion><href>/mdr/sdtm/2-0/classes/Events/variables/--OUT</href><title>Outcome of Event</title><type>SDTM Class Variable</type></priorVersion><rootItem><href>/mdr/root/sdtm/classes/Events/variables/--OUT</href><title>Version-agnostic anchor resource for SDTM variable Events.--OUT</title><type>Root Data Element</type></rootItem><self><href>/mdr/sdtm/2-1/classes/Events/variables/--OUT</href><title>Outcome of Event</title><type>SDTM Class Variable</type></self></_links><definition>The status associated with the result or conclusion of the event.</definition><examples>"RECOVERED/RESOLVED", "FATAL"</examples><label>Outcome of Event</label><name>--OUT</name><ordinal>40</ordinal><role>Record Qualifier</role><simpleDatatype>Char</simpleDatatype><variableCcode>C171001</variableCcode></classVariable><classVariable><_links><parentClass><href>/mdr/sdtm/2-1/classes/Events</href><title>Events</title><type>Class</type></parentClass><parentProduct><href>/mdr/sdtm/2-1</href><title>Study Data Tabulation Model Version 2.1</title><type>Foundational Model</type></parentProduct><priorVersion><href>/mdr/sdtm/2-0/classes/Events/variables/--SCAN</href><title>Involves Cancer</title><type>SDTM Class Variable</type></priorVersion><rootItem><href>/mdr/root/sdtm/classes/Events/variables/--SCAN</href><title>Version-agnostic anchor resource for SDTM variable Events.--SCAN</title><type>Root Data Element</type></rootItem><self><href>/mdr/sdtm/2-1/classes/Events/variables/--SCAN</href><title>Involves Cancer</title><type>SDTM Class Variable</type></self></_links><definition>An indication as to whether the reason an event was serious was because the event was associated with cancer.</definition><label>Involves Cancer</label><name>--SCAN</name><notes>Valid values are "Y", "N", and null. \n This is a legacy seriousness criterion. It is not included in ICH E2A or E2B.</notes><ordinal>41</ordinal><role>Record Qualifier</role><simpleDatatype>Char</simpleDatatype><usageRestrictions>Not in nonclinical trials</usageRestrictions><variableCcode>C82561</variableCcode></classVariable><classVariable><_links><parentClass><href>/mdr/sdtm/2-1/classes/Events</href><title>Events</title><type>Class</type></parentClass><parentProduct><href>/mdr/sdtm/2-1</href><title>Study Data Tabulation Model Version 2.1</title><type>Foundational Model</type></parentProduct><priorVersion><href>/mdr/sdtm/2-0/classes/Events/variables/--SCONG</href><title>Congenital Anomaly or Birth Defect</title><type>SDTM Class Variable</type></priorVersion><rootItem><href>/mdr/root/sdtm/classes/Events/variables/--SCONG</href><title>Version-agnostic anchor resource for SDTM variable Events.--SCONG</title><type>Root Data Element</type></rootItem><self><href>/mdr/sdtm/2-1/classes/Events/variables/--SCONG</href><title>Congenital Anomaly or Birth Defect</title><type>SDTM Class Variable</type></self></_links><definition>An indication as to whether the reason an event is serious is because the event is associated with congenital anomaly or birth defect in an offspring of the subject.</definition><label>Congenital Anomaly or Birth Defect</label><name>--SCONG</name><notes>Valid values are "Y", "N", and null.</notes><ordinal>42</ordinal><role>Record Qualifier</role><simpleDatatype>Char</simpleDatatype><usageRestrictions>Not in nonclinical trials</usageRestrictions><variableCcode>C2849</variableCcode></classVariable><classVariable><_links><parentClass><href>/mdr/sdtm/2-1/classes/Events</href><title>Events</title><type>Class</type></parentClass><parentProduct><href>/mdr/sdtm/2-1</href><title>Study Data Tabulation Model Version 2.1</title><type>Foundational Model</type></parentProduct><priorVersion><href>/mdr/sdtm/2-0/classes/Events/variables/--SDISAB</href><title>Persist or Signif Disability/Incapacity</title><type>SDTM Class Variable</type></priorVersion><rootItem><href>/mdr/root/sdtm/classes/Events/variables/--SDISAB</href><title>Version-agnostic anchor resource for SDTM variable Events.--SDISAB</title><type>Root Data Element</type></rootItem><self><href>/mdr/sdtm/2-1/classes/Events/variables/--SDISAB</href><title>Persist or Signif Disability/Incapacity</title><type>SDTM Class Variable</type></self></_links><definition>An indication as to whether the reason an event is serious is because the event resulted in a significant, persistent, or permanent change, impairment, damage, or disruption in the subject's body function/structure, physical activities, and/or quality of life.</definition><label>Persist or Signif Disability/Incapacity</label><name>--SDISAB</name><notes>Valid values are "Y", "N", and null.</notes><ordinal>43</ordinal><role>Record Qualifier</role><simpleDatatype>Char</simpleDatatype><usageRestrictions>Not in nonclinical trials</usageRestrictions><variableCcode>C68606</variableCcode></classVariable><classVariable><_links><parentClass><href>/mdr/sdtm/2-1/classes/Events</href><title>Events</title><type>Class</type></parentClass><parentProduct><href>/mdr/sdtm/2-1</href><title>Study Data Tabulation Model Version 2.1</title><type>Foundational Model</type></parentProduct><priorVersion><href>/mdr/sdtm/2-0/classes/Events/variables/--SDTH</href><title>Results in Death</title><type>SDTM Class Variable</type></priorVersion><rootItem><href>/mdr/root/sdtm/classes/Events/variables/--SDTH</href><title>Version-agnostic anchor resource for SDTM variable Events.--SDTH</title><type>Root Data Element</type></rootItem><self><href>/mdr/sdtm/2-1/classes/Events/variables/--SDTH</href><title>Results in Death</title><type>SDTM Class Variable</type></self></_links><definition>An indication as to whether the reason an event is serious is because the event resulted in death.</definition><label>Results in Death</label><name>--SDTH</name><notes>Valid values are "Y", "N", and null.</notes><ordinal>44</ordinal><role>Record Qualifier</role><simpleDatatype>Char</simpleDatatype><usageRestrictions>Not in nonclinical trials</usageRestrictions><variableCcode>C82549</variableCcode></classVariable><classVariable><_links><parentClass><href>/mdr/sdtm/2-1/classes/Events</href><title>Events</title><type>Class</type></parentClass><parentProduct><href>/mdr/sdtm/2-1</href><title>Study Data Tabulation Model Version 2.1</title><type>Foundational Model</type></parentProduct><priorVersion><href>/mdr/sdtm/2-0/classes/Events/variables/--SHOSP</href><title>Requires or Prolongs Hospitalization</title><type>SDTM Class Variable</type></priorVersion><rootItem><href>/mdr/root/sdtm/classes/Events/variables/--SHOSP</href><title>Version-agnostic anchor resource for SDTM variable Events.--SHOSP</title><type>Root Data Element</type></rootItem><self><href>/mdr/sdtm/2-1/classes/Events/variables/--SHOSP</href><title>Requires or Prolongs Hospitalization</title><type>SDTM Class Variable</type></self></_links><definition>An indication as to whether the reason an event is serious is because the event resulted in or prolonged hospitalization.</definition><label>Requires or Prolongs Hospitalization</label><name>--SHOSP</name><notes>Valid values are "Y", "N", and null.</notes><ordinal>45</ordinal><role>Record Qualifier</role><simpleDatatype>Char</simpleDatatype><usageRestrictions>Not in nonclinical trials</usageRestrictions><variableCcode>C68605</variableCcode></classVariable><classVariable><_links><parentClass><href>/mdr/sdtm/2-1/classes/Events</href><title>Events</title><type>Class</type></parentClass><parentProduct><href>/mdr/sdtm/2-1</href><title>Study Data Tabulation Model Version 2.1</title><type>Foundational Model</type></parentProduct><priorVersion><href>/mdr/sdtm/2-0/classes/Events/variables/--SLIFE</href><title>Is Life Threatening</title><type>SDTM Class Variable</type></priorVersion><rootItem><href>/mdr/root/sdtm/classes/Events/variables/--SLIFE</href><title>Version-agnostic anchor resource for SDTM variable Events.--SLIFE</title><type>Root Data Element</type></rootItem><self><href>/mdr/sdtm/2-1/classes/Events/variables/--SLIFE</href><title>Is Life Threatening</title><type>SDTM Class Variable</type></self></_links><definition>An indication as to whether the reason an event is serious is because the event resulted in a substantial risk of dying.</definition><label>Is Life Threatening</label><name>--SLIFE</name><notes>Valid values are "Y", "N", and null.</notes><ordinal>46</ordinal><role>Record Qualifier</role><simpleDatatype>Char</simpleDatatype><usageRestrictions>Not in nonclinical trials</usageRestrictions><variableCcode>C82508</variableCcode></classVariable><classVariable><_links><parentClass><href>/mdr/sdtm/2-1/classes/Events</href><title>Events</title><type>Class</type></parentClass><parentProduct><href>/mdr/sdtm/2-1</href><title>Study Data Tabulation Model Version 2.1</title><type>Foundational Model</type></parentProduct><priorVersion><href>/mdr/sdtm/2-0/classes/Events/variables/--SOD</href><title>Occurred with Overdose</title><type>SDTM Class Variable</type></priorVersion><rootItem><href>/mdr/root/sdtm/classes/Events/variables/--SOD</href><title>Version-agnostic anchor resource for SDTM variable Events.--SOD</title><type>Root Data Element</type></rootItem>